#time,accel_x,accel_y,accel_z
1522.065224,-5921.647536,7698.141797,-72319.415011
1522.067782,-444.123565,6217.729913,-74311.263306
1522.070340,-1184.329507,2072.576638,-76303.111601
1522.072899,-5477.523971,6661.853478,-74924.139704
1522.075457,-2072.576638,4293.194464,-74004.825107
1522.078016,-2960.823768,3997.112087,-73698.386908
1522.080574,148.041188,4441.235652,-75690.235202
1522.083133,1924.535449,-296.082377,-78448.178995
1522.085691,-3108.864956,3849.070898,-77988.521696
1522.088249,2072.576638,5625.565159,-82125.437386
1522.090808,-2516.700203,2812.782580,-87028.448573
1522.093366,-7698.141797,5181.441594,-82278.656485
1522.095925,2664.741391,444.123565,-82431.875585
1522.098483,-740.205942,10066.800811,-77988.521696
1522.101042,9326.594869,1924.535449,-79367.493593
1522.103600,-5329.482782,6365.771101,-73391.948708
1522.106158,148.041188,10066.800811,-74617.701505
1522.108717,-9622.677246,-8142.265362,-80746.465489
1522.111275,7254.018232,6661.853478,-74617.701505
1522.113834,-9030.512492,-9918.759623,-84423.723880
1522.116392,-888.247130,1924.535449,-76609.549800
1522.118951,-14508.036463,1480.411884,-73851.606007
1522.121509,-1480.411884,-4589.276840,-72472.634111
1522.124067,-4885.359217,2072.576638,-73545.167808
1522.126626,4885.359217,4885.359217,-75537.016103
1522.129184,-6513.812290,5773.606348,-75383.797003
1522.131743,-9918.759623,2664.741391,-75537.016103
1522.134301,-4737.318029,3701.029710,-75230.577904
1522.136860,592.164754,5033.400406,-72625.853210
1522.139391,-10362.883188,888.247130,-74924.139704
1522.141923,3404.947333,2812.782580,-72625.853210
1522.144455,-10362.883188,1776.494261,-73238.729609
1522.146986,-2812.782580,6809.894666,-72932.291410
1522.149518,-1924.535449,2812.782580,-77682.083497
1522.152050,-4441.235652,2812.782580,-77988.521696
1522.154582,-6513.812290,1924.535449,-76303.111601
1522.157113,-11251.130318,-2220.617826,-78448.178995
1522.159645,-6069.688724,-1184.329507,-77375.645298
1522.162177,4737.318029,-1776.494261,-79061.055394
1522.164709,-9326.594869,2516.700203,-76609.549800
1522.167240,-11103.089130,1036.288319,-74311.263306
1522.169772,-5921.647536,3256.906145,-73545.167808
1522.172304,-6809.894666,1480.411884,-76149.892501
1522.174836,-592.164754,-592.164754,-74158.044206
1522.177367,888.247130,2960.823768,-75690.235202
1522.179899,-21465.972318,-1332.370696,-81972.218286
1522.182431,9770.718434,8438.347739,-74311.263306
1522.184962,-28719.990550,-7105.977043,-79673.931792
1522.187494,16580.613101,9178.553681,-72166.195912
1522.190026,-21762.054695,-5033.400406,-83351.190182
1522.192558,1184.329507,14656.077652,-67569.622924
1522.195089,-4293.194464,-10362.883188,-79214.274493
1522.197621,-19245.354492,2812.782580,-68182.499322
1522.200153,34345.555709,18505.148550,-70021.128517
1522.202685,-39675.038491,-13323.706956,-87181.667672
1522.205216,33457.308578,40711.326810,-61287.639840
1522.207748,2516.700203,-6365.771101,-86722.010374
1522.210280,-31088.649564,-148.041188,-76762.768900
1522.212811,28719.990550,1628.453072,-71706.538613
1522.215343,-5921.647536,-6069.688724,-81206.122788
1522.217875,-8586.388927,-5329.482782,-90399.268764
1522.220407,16876.695478,5625.565159,-83044.751983
1522.222938,-23538.548956,-5477.523971,-88560.639569
1522.225470,14359.995275,6809.894666,-79367.493593
1522.228002,-4737.318029,5033.400406,-69255.033019
1522.230534,-2072.576638,5625.565159,-72625.853210
1522.233065,14211.954086,20133.601622,-62053.735338
1522.235597,-3849.070898,8290.306550,-66650.308326
1522.238129,740.205942,5625.565159,-73391.948708
1522.240668,8438.347739,12435.459826,-67109.965625
1522.243207,-5181.441594,740.205942,-79061.055394
1522.245746,0.000000,1332.370696,-75537.016103
1522.248285,-4885.359217,7698.141797,-73085.510509
1522.250824,-2664.741391,2812.782580,-78294.959896
1522.253363,-1924.535449,148.041188,-79367.493593
1522.255902,-1924.535449,9178.553681,-74770.920605
1522.258441,1332.370696,6809.894666,-76303.111601
1522.260980,2664.741391,11103.089130,-77375.645298
1522.263519,-1480.411884,11843.295072,-75537.016103
1522.266059,-4441.235652,2664.741391,-74004.825107
1522.268598,-1628.453072,3997.112087,-73851.606007
1522.271137,3404.947333,9770.718434,-70634.004916
1522.273676,-3404.947333,2960.823768,-75383.797003
1522.276215,3256.906145,8734.430116,-77988.521696
1522.278754,-8438.347739,-1332.370696,-79980.369991
1522.281293,2072.576638,12583.501014,-70021.128517
1522.283832,-5181.441594,-3108.864956,-81665.780087
1522.286371,16876.695478,12583.501014,-73698.386908
1522.288910,-9770.718434,-9770.718434,-86415.572174
1522.291449,-11399.171507,14804.118840,-69101.813920
1522.293988,19097.313304,9918.759623,-73851.606007
1522.296527,-41303.491564,-21910.095883,-84270.504780
1522.299066,29904.320057,21465.972318,-59602.229744
1522.301606,-12139.377449,-22354.219448,-89326.735067
1522.304145,-26943.496289,9178.553681,-76609.549800
1522.306684,27091.537477,22058.137072,-70174.347617
1522.309223,-47669.262665,-5181.441594,-79367.493593
1522.311762,19097.313304,12583.501014,-64964.898230
1522.314301,-12731.542202,-2072.576638,-74464.482406
1522.316840,-10807.006753,-9178.553681,-81818.999186
1522.319379,13027.624579,8290.306550,-69561.471218
1522.321918,-9770.718434,4441.235652,-69408.252119
1522.324457,-8882.471304,-4145.153275,-83197.971083
1522.326996,4885.359217,15988.448347,-70021.128517
1522.329535,-8290.306550,-296.082377,-76456.330700
1522.332074,-6069.688724,740.205942,-76762.768900
1522.334614,-1924.535449,5625.565159,-70480.785816
1522.337153,-9622.677246,-5477.523971,-78754.617194
1522.339692,1184.329507,8586.388927,-70480.785816
1522.342237,-5329.482782,9918.759623,-66343.870127
1522.344782,-3256.906145,2664.741391,-73545.167808
1522.347328,-7550.100608,6661.853478,-73698.386908
1522.349873,5181.441594,-2368.659014,-80440.027290
1522.352418,-13323.706956,444.123565,-73391.948708
1522.354964,-7105.977043,2368.659014,-73238.729609
1522.357509,-2664.741391,-5329.482782,-75537.016103
1522.360055,-11547.212695,-5625.565159,-75996.673402
1522.362600,4589.276840,4737.318029,-74311.263306
1522.365145,-6957.935855,2960.823768,-78448.178995
1522.367691,-17468.860231,740.205942,-76915.987999
1522.370236,9178.553681,3849.070898,-74617.701505
1522.372781,-19393.395680,-4441.235652,-81206.122788
1522.375327,10955.047942,-888.247130,-80286.808190
1522.377872,-17764.942608,-1184.329507,-82585.094684
1522.380417,8586.388927,444.123565,-82585.094684
1522.382963,-28127.825796,-5773.606348,-82125.437386
1522.385508,12287.418637,14656.077652,-68642.156621
1522.388053,-444.123565,-10214.842000,-80440.027290
1522.390599,-19393.395680,444.123565,-73545.167808
1522.393144,30348.443622,24574.837274,-68335.718422
1522.395689,-34197.514520,-17320.819043,-87947.763170
1522.398235,26795.455100,41747.615129,-55158.875856
1522.400780,14063.912898,1480.411884,-77528.864398
1522.403326,-33013.185013,-2960.823768,-75230.577904
1522.405871,25907.207970,9326.594869,-68488.937521
1522.408416,-17320.819043,-7402.059420,-76303.111601
1522.410962,4589.276840,10214.842000,-73391.948708
1522.413507,2664.741391,5477.523971,-67876.061123
1522.416052,-9918.759623,3701.029710,-73698.386908
1522.418598,20725.766376,20577.725188,-69867.909418
1522.421143,-14952.160028,8290.306550,-68795.375720
1522.423688,2960.823768,3256.906145,-72472.634111
1522.426234,6217.729913,13323.706956,-68488.937521
1522.428779,3256.906145,5181.441594,-69561.471218
1522.431324,-3256.906145,5477.523971,-72625.853210
1522.433870,888.247130,11991.336260,-70787.224015
1522.436415,444.123565,-4737.318029,-84576.942979
1522.438960,-8734.430116,5181.441594,-76609.549800
1522.441506,-148.041188,8290.306550,-74158.044206
1522.444028,-1184.329507,2072.576638,-78907.836294
1522.446549,1480.411884,8142.265362,-71553.319513
1522.449071,8734.430116,9622.677246,-71553.319513
1522.451593,-1332.370696,13175.665768,-74158.044206
1522.454115,2220.617826,9474.636058,-74770.920605
1522.456636,-9474.636058,3849.070898,-72625.853210
1522.459158,6365.771101,4441.235652,-75690.235202
1522.461680,-3108.864956,-4737.318029,-79520.712692
1522.464202,-2664.741391,6365.771101,-74770.920605
1522.466723,3404.947333,13619.789333,-73851.606007
1522.469245,-4885.359217,3108.864956,-74617.701505
1522.471767,-2812.782580,11251.130318,-69867.909418
1522.474289,7846.182985,-3552.988522,-77682.083497
1522.476810,-9918.759623,20429.683999,-69408.252119
1522.479332,15248.242405,2368.659014,-83351.190182
1522.481854,-33013.185013,-1776.494261,-79214.274493
1522.484376,35974.008781,22502.260637,-65118.117330
1522.486897,-34493.596897,-36418.132346,-93770.088955
1522.489419,-15988.448347,5921.647536,-74004.825107
1522.491941,25611.125593,6661.853478,-78141.740796
1522.494463,-40415.244433,-26499.372724,-89786.392366
1522.496984,26351.331535,12583.501014,-74924.139704
1522.499506,-7994.224174,-6661.853478,-83810.847481
1522.502028,-15840.407159,-5033.400406,-78601.398095
1522.504550,18949.272115,10362.883188,-74924.139704
1522.507071,-22058.137072,-16284.530724,-77682.083497
1522.509593,-3256.906145,-6069.688724,-80899.684589
1522.512115,7846.182985,6957.935855,-72012.976812
1522.514637,-14656.077652,5033.400406,-70021.128517
1522.517158,9918.759623,17024.736666,-62973.049936
1522.519680,-1628.453072,6513.812290,-65884.212828
1522.522202,-10955.047942,-4293.194464,-78448.178995
1522.524724,1036.288319,6957.935855,-72319.415011
1522.527245,-4589.276840,8142.265362,-68642.156621
1522.529767,-4145.153275,-740.205942,-79827.150892
1522.532289,-6809.894666,148.041188,-77222.426198
1522.534811,-2072.576638,3849.070898,-71706.538613
1522.537332,-7550.100608,2220.617826,-73391.948708
1522.539854,-3997.112087,2368.659014,-74924.139704
1522.542376,-3997.112087,1776.494261,-74158.044206
1522.544908,-5625.565159,-6217.729913,-78754.617194
1522.547440,-2220.617826,4145.153275,-75077.358804
1522.549972,-4589.276840,6365.771101,-73698.386908
1522.552503,-15840.407159,-888.247130,-72472.634111
1522.555035,4589.276840,6809.894666,-73698.386908
1522.557566,-8882.471304,-2368.659014,-80286.808190
1522.560098,592.164754,-2960.823768,-79061.055394
1522.562629,-11251.130318,3404.947333,-76609.549800
1522.565161,13175.665768,6661.853478,-78601.398095
1522.567692,-31384.731941,-6957.935855,-84730.162079
1522.570224,10955.047942,16728.654289,-68182.499322
1522.572756,-19689.478057,-18209.066173,-83351.190182
1522.575287,-3256.906145,16728.654289,-62666.611736
1522.577819,27831.743419,7698.141797,-76456.330700
1522.580350,-41155.450375,-7846.182985,-79980.369991
1522.582882,48261.427418,42931.944636,-56078.190454
1522.585413,-27683.702231,-10955.047942,-84423.723880
1522.587945,-8438.347739,18061.024985,-69561.471218
1522.590477,14211.954086,11399.171507,-68488.937521
1522.593008,-27831.743419,-3404.947333,-71093.662214
1522.595540,24870.919651,21169.889941,-63126.269035
1522.598071,-11103.089130,2516.700203,-64505.240932
1522.600603,-2220.617826,13027.624579,-67109.965625
1522.603134,25018.960840,22946.384202,-67722.842023
1522.605666,-10362.883188,12879.583391,-65118.117330
1522.608197,2368.659014,4589.276840,-75383.797003
1522.610729,2516.700203,1776.494261,-77069.207099
1522.613261,-4293.194464,2516.700203,-75996.673402
1522.615792,-1184.329507,5625.565159,-77222.426198
1522.618324,-2368.659014,7846.182985,-76303.111601
1522.620855,-1332.370696,148.041188,-80440.027290
1522.623387,-2516.700203,4589.276840,-71400.100414
1522.625918,-740.205942,6365.771101,-70634.004916
1522.628450,5477.523971,5921.647536,-74924.139704
1522.630982,11251.130318,13027.624579,-71246.881314
1522.633513,-4885.359217,11103.089130,-73085.510509
1522.636045,-2072.576638,4293.194464,-77375.645298
1522.638576,4589.276840,8142.265362,-73698.386908
1522.641108,1036.288319,10807.006753,-70480.785816
1522.643639,888.247130,1776.494261,-70634.004916
1522.646179,1628.453072,6513.812290,-74617.701505
1522.648719,-6069.688724,14211.954086,-71093.662214
1522.651259,3404.947333,8734.430116,-72625.853210
1522.653799,-10066.800811,7402.059420,-73545.167808
1522.656339,14063.912898,1184.329507,-76303.111601
1522.658879,-16284.530724,16284.530724,-72012.976812
1522.661419,15988.448347,3108.864956,-81512.560987
1522.663958,-30644.525999,-11103.089130,-84270.504780
1522.666498,27239.578666,26055.249158,-65884.212828
1522.669038,14211.954086,3849.070898,-77375.645298
1522.671578,-45892.768404,-22354.219448,-82431.875585
1522.674118,39230.914926,24574.837274,-60061.887043
1522.676658,-26943.496289,-23982.672521,-88713.858668
1522.679198,3849.070898,8586.388927,-78448.178995
1522.681738,11103.089130,4293.194464,-81818.999186
1522.684278,-33013.185013,-7402.059420,-78448.178995
1522.686818,19097.313304,10955.047942,-74464.482406
1522.689357,-14063.912898,-11103.089130,-77069.207099
1522.691897,-16284.530724,-8438.347739,-79673.931792
1522.694437,12731.542202,10510.924376,-70480.785816
1522.696977,-15988.448347,8438.347739,-68182.499322
1522.699517,6957.935855,10214.842000,-68488.937521
1522.702057,-2368.659014,5477.523971,-66650.308326
1522.704597,-8142.265362,-4737.318029,-78448.178995
1522.707137,-6957.935855,-444.123565,-76303.111601
1522.709677,-296.082377,9030.512492,-71706.538613
1522.712217,-1332.370696,-888.247130,-85343.038477
1522.714756,-1628.453072,-1480.411884,-80746.465489
1522.717296,-11843.295072,3256.906145,-71246.881314
1522.719836,-9622.677246,-1184.329507,-75077.358804
1522.722376,-3256.906145,-1776.494261,-76149.892501
1522.724916,-3404.947333,-2368.659014,-76762.768900
1522.727456,-2072.576638,-1480.411884,-75690.235202
1522.729996,-6809.894666,7698.141797,-71859.757712
1522.732536,-16284.530724,444.123565,-72625.853210
1522.735076,5921.647536,8882.471304,-69561.471218
1522.737615,-7698.141797,2812.782580,-74311.263306
1522.740155,6809.894666,-1480.411884,-74004.825107
1522.742695,-18505.148550,-2072.576638,-79673.931792
1522.745235,8586.388927,15100.201217,-70634.004916
1522.747782,-27387.619854,-11843.295072,-82431.875585
1522.750330,9030.512492,16432.571912,-66956.746525
1522.752877,-7254.018232,-10362.883188,-80899.684589
1522.755424,-11991.336260,6513.812290,-70480.785816
1522.757971,24574.837274,18653.189738,-72932.291410
1522.760518,-35233.802839,-16580.613101,-87947.763170
1522.763066,41451.532752,39378.956114,-60827.982541
1522.765613,-9030.512492,-10658.965565,-86875.229473
1522.768160,-27683.702231,5033.400406,-80133.589091
1522.770707,24574.837274,13175.665768,-71400.100414
1522.773254,-25167.002028,-9770.718434,-71553.319513
1522.775802,13619.789333,19985.560434,-85496.257577
1522.778349,9622.677246,8734.430116,-72472.634111
1522.780896,-11991.336260,888.247130,-76609.549800
1522.783443,15396.283594,18801.230927,-71706.538613
1522.785990,-1924.535449,14952.160028,-65424.555529
1522.788538,-4441.235652,3404.947333,-72932.291410
1522.791085,5773.606348,8882.471304,-68948.594820
1522.793632,740.205942,3701.029710,-69408.252119
1522.796179,-2368.659014,6365.771101,-74617.701505
1522.798726,3701.029710,6365.771101,-74004.825107
1522.801274,-592.164754,3404.947333,-77528.864398
1522.803821,-6513.812290,6513.812290,-71859.757712
1522.806368,5033.400406,3256.906145,-72319.415011
1522.808915,148.041188,9178.553681,-74770.920605
1522.811462,2516.700203,6809.894666,-79827.150892
1522.814010,-5033.400406,3701.029710,-79980.369991
1522.816557,6661.853478,10214.842000,-75537.016103
1522.819104,-1332.370696,6809.894666,-73238.729609
1522.821651,1332.370696,4441.235652,-71400.100414
1522.824198,6365.771101,10362.883188,-71706.538613
1522.826746,-10066.800811,-2368.659014,-76303.111601
1522.829293,2664.741391,11547.212695,-65424.555529
1522.831840,-3404.947333,3701.029710,-74004.825107
1522.834387,12139.377449,14508.036463,-69101.813920
1522.836934,-9770.718434,11695.253884,-68029.280222
1522.839482,27239.578666,18949.272115,-65577.774629
1522.842029,-26055.249158,-13027.624579,-87028.448573
1522.844576,-6809.894666,15692.365970,-65271.336430
1522.847123,6809.894666,2220.617826,-54699.218557
1522.849676,-32272.979071,-28423.908173,-86722.010374
1522.852229,13619.789333,17172.777854,-67722.842023
1522.854781,10658.965565,148.041188,-82585.094684
1522.857334,-37158.338288,-888.247130,-85955.914876
1522.859887,21317.931130,9326.594869,-81512.560987
1522.862440,-31680.814318,-13323.706956,-86262.353075
1522.864992,1332.370696,-4145.153275,-86109.133975
1522.867545,-3108.864956,-8142.265362,-81972.218286
1522.870098,-25463.084405,-12879.583391,-84423.723880
1522.872651,5477.523971,10807.006753,-73085.510509
1522.875203,-14952.160028,9770.718434,-67109.965625
1522.877756,2960.823768,2664.741391,-72472.634111
1522.880309,1628.453072,12879.583391,-67416.403824
1522.882861,-6069.688724,2812.782580,-70327.566716
1522.885414,-5625.565159,-6217.729913,-75383.797003
1522.887967,-444.123565,9474.636058,-71706.538613
1522.890520,4145.153275,3997.112087,-76609.549800
1522.893072,-10955.047942,-740.205942,-76915.987999
1522.895625,-10066.800811,2812.782580,-70634.004916
1522.898178,-6957.935855,-3256.906145,-74464.482406
1522.900731,-5921.647536,-2072.576638,-77528.864398
1522.903283,2368.659014,1036.288319,-79214.274493
1522.905836,-10955.047942,0.000000,-76149.892501
1522.908389,-7698.141797,740.205942,-74924.139704
1522.910942,-4145.153275,1332.370696,-75690.235202
1522.913494,-8438.347739,-1036.288319,-73391.948708
1522.916047,10955.047942,7402.059420,-73238.729609
1522.918600,-8290.306550,-10807.006753,-82278.656485
1522.921152,-10658.965565,14211.954086,-65730.993728
1522.923705,10362.883188,-5181.441594,-75230.577904
1522.926258,-24130.713709,1628.453072,-70940.443115
1522.928811,37010.297100,13915.871710,-72932.291410
1522.931363,-39526.997303,-15100.201217,-87641.324971
1522.933916,33309.267390,31976.896694,-63279.488135
1522.936469,4293.194464,-12879.583391,-84117.285680
1522.939022,-31236.690752,6809.894666,-68795.375720
1522.941574,44116.274143,30940.608376,-62973.049936
1522.944127,-26055.249158,-12731.542202,-85189.819378
1522.946680,10658.965565,4441.235652,-74924.139704
1522.949232,9918.759623,-592.164754,-78601.398095
1522.951790,-13767.830521,-5033.400406,-85802.695776
1522.954347,9326.594869,7254.018232,-82738.313784
1522.956905,1184.329507,1480.411884,-79827.150892
1522.959462,-12435.459826,1924.535449,-78601.398095
1522.962019,1628.453072,3256.906145,-84576.942979
1522.964577,-6365.771101,-1480.411884,-81052.903688
1522.967134,-8438.347739,148.041188,-84576.942979
1522.969691,-296.082377,3849.070898,-78907.836294
1522.972249,-2960.823768,5181.441594,-76762.768900
1522.974806,2516.700203,6957.935855,-76149.892501
1522.977364,-5181.441594,3256.906145,-74311.263306
1522.979921,-3256.906145,7846.182985,-74617.701505
1522.982478,1036.288319,5625.565159,-75996.673402
1522.985036,444.123565,5773.606348,-75383.797003
1522.987593,3404.947333,12879.583391,-73545.167808
1522.990150,4589.276840,13323.706956,-74311.263306
1522.992708,-4885.359217,4885.359217,-74464.482406
1522.995265,4737.318029,3404.947333,-76149.892501
1522.997822,-2368.659014,6365.771101,-73085.510509
1523.000380,-3108.864956,4293.194464,-70787.224015
1523.002937,-3701.029710,7698.141797,-72012.976812
1523.005495,4293.194464,8290.306550,-74924.139704
1523.008052,-3997.112087,23982.672521,-70480.785816
1523.010609,14211.954086,4293.194464,-79673.931792
1523.013167,-26055.249158,-1184.329507,-76915.987999
1523.015724,31680.814318,18209.066173,-65271.336430
1523.018281,-43376.068201,-36122.049970,-95302.279951
1523.020839,-15544.324782,1332.370696,-75690.235202
1523.023396,25907.207970,7402.059420,-76762.768900
1523.025954,-46040.809592,-3404.947333,-88100.982270
1523.028511,20429.683999,13175.665768,-75383.797003
1523.031068,-5477.523971,740.205942,-79214.274493
1523.033626,-20725.766376,-6069.688724,-73851.606007
1523.036183,24722.878463,5181.441594,-70174.347617
1523.038740,-26647.413912,-11399.171507,-74770.920605
1523.041298,0.000000,2072.576638,-73238.729609
1523.043855,4441.235652,5625.565159,-72319.415011
1523.046413,-16728.654289,4441.235652,-68948.594820
1523.048970,12583.501014,11103.089130,-67876.061123
1523.051527,-6661.853478,10066.800811,-67569.622924
1523.054060,-7550.100608,740.205942,-79980.369991
1523.056592,1184.329507,3552.988522,-76456.330700
1523.059124,-11103.089130,-3552.988522,-76303.111601
1523.061656,1480.411884,2368.659014,-80286.808190
1523.064189,-10510.924376,2220.617826,-76609.549800
1523.066721,-9622.677246,888.247130,-75537.016103
1523.069253,-4441.235652,-2072.576638,-74770.920605
1523.071785,-5773.606348,0.000000,-76609.549800
1523.074318,-7698.141797,-3849.070898,-78907.836294
1523.076850,-6365.771101,-3997.112087,-77375.645298
1523.079382,-6661.853478,6069.688724,-77682.083497
1523.081915,-8882.471304,444.123565,-77222.426198
1523.084447,1924.535449,3701.029710,-77069.207099
1523.086979,-13619.789333,-4145.153275,-84117.285680
1523.089511,11251.130318,4589.276840,-77222.426198
1523.092044,-32865.143825,-7402.059420,-83810.847481
1523.094576,15988.448347,8290.306550,-68182.499322
1523.097108,-4737.318029,-12583.501014,-80746.465489
1523.099640,-20873.807564,3849.070898,-72166.195912
1523.102173,33161.226202,22798.343014,-72319.415011
1523.104705,-37010.297100,-10807.006753,-86262.353075
1523.107237,34345.555709,38490.708984,-58682.915147
1523.109770,-5477.523971,-1184.329507,-78141.740796
1523.112302,-27535.661042,4441.235652,-73238.729609
1523.114834,29756.278868,14952.160028,-66037.431928
1523.117366,-29164.114115,-5033.400406,-72779.072310
1523.119899,12583.501014,15248.242405,-66037.431928
1523.122431,2220.617826,15840.407159,-62360.173537
1523.124963,-11103.089130,6365.771101,-73851.606007
1523.127496,21317.931130,15840.407159,-74617.701505
1523.130028,-10807.006753,6217.729913,-78754.617194
1523.132560,-1924.535449,-1776.494261,-78601.398095
1523.135092,-1776.494261,6217.729913,-73545.167808
1523.137625,-4589.276840,7698.141797,-69714.690318
1523.140157,-2516.700203,1776.494261,-72779.072310
1523.142689,296.082377,10955.047942,-69101.813920
1523.145221,-2368.659014,3997.112087,-76456.330700
1523.147754,-444.123565,7994.224174,-73851.606007
1523.150286,-1036.288319,12879.583391,-71553.319513
1523.152818,-1628.453072,2664.741391,-77682.083497
1523.155359,9326.594869,16432.571912,-74770.920605
1523.157900,-2664.741391,7402.059420,-78601.398095
1523.160441,-4737.318029,2664.741391,-78141.740796
1523.162982,5329.482782,7550.100608,-75996.673402
1523.165523,-7846.182985,-6809.894666,-81512.560987
1523.168065,1184.329507,3701.029710,-73851.606007
1523.170606,-4589.276840,3108.864956,-76456.330700
1523.173147,10362.883188,9918.759623,-74004.825107
1523.175688,-11695.253884,7402.059420,-74617.701505
1523.178229,27831.743419,19985.560434,-70021.128517
1523.180770,-18801.230927,-12287.418637,-87794.544071
1523.183311,-18653.189738,14656.077652,-63279.488135
1523.185852,11695.253884,4737.318029,-66650.308326
1523.188393,-39823.079680,-26499.372724,-83504.409282
1523.190934,41747.615129,23242.466579,-60674.763442
1523.193475,-25463.084405,-14952.160028,-84576.942979
1523.196016,1628.453072,11843.295072,-76609.549800
1523.198557,7550.100608,7402.059420,-74924.139704
1523.201098,-28127.825796,-13175.665768,-82738.313784
1523.203639,4885.359217,-2516.700203,-85036.600278
1523.206180,1036.288319,-5921.647536,-80440.027290
1523.208721,-28127.825796,-7698.141797,-79061.055394
1523.211262,1036.288319,5921.647536,-70480.785816
1523.213803,-12731.542202,8882.471304,-66956.746525
1523.216344,3701.029710,888.247130,-77682.083497
1523.218885,3997.112087,8734.430116,-74924.139704
1523.221426,-10510.924376,1628.453072,-79214.274493
1523.223967,-6217.729913,-4885.359217,-80593.246390
1523.226508,-11399.171507,7550.100608,-71400.100414
1523.229049,-7105.977043,-1776.494261,-79827.150892
1523.231590,-888.247130,3849.070898,-74004.825107
1523.234132,-7550.100608,5921.647536,-72012.976812
1523.236673,-8586.388927,-4589.276840,-76915.987999
1523.239214,-13323.706956,-6661.853478,-76456.330700
1523.241755,888.247130,740.205942,-75383.797003
1523.244296,-2664.741391,-296.082377,-78141.740796
1523.246837,-10214.842000,2812.782580,-74158.044206
1523.249378,2960.823768,11103.089130,-72319.415011
1523.251919,-18209.066173,-6069.688724,-77682.083497
1523.254460,11251.130318,18653.189738,-64198.802732
1523.257008,-15840.407159,-11547.212695,-77222.426198
1523.259557,-7550.100608,12731.542202,-64352.021832
1523.262105,8290.306550,-11399.171507,-81206.122788
1523.264653,-28719.990550,-592.164754,-77375.645298
1523.267202,35381.844028,27239.578666,-72319.415011
1523.269750,-30940.608376,-16432.571912,-91318.583362
1523.272299,19097.313304,35529.885216,-62360.173537
1523.274847,33161.226202,23538.548956,-69714.690318
1523.277395,-25907.207970,-18505.148550,-87488.105872
1523.279944,11695.253884,2960.823768,-74311.263306
1523.282492,9474.636058,-3108.864956,-77988.521696
1523.285040,-10955.047942,-6809.894666,-87947.763170
1523.287589,15544.324782,17172.777854,-68488.937521
1523.290137,-11991.336260,5033.400406,-67263.184724
1523.292686,9030.512492,13767.830521,-68948.594820
1523.295234,10955.047942,19541.436869,-61134.420740
1523.297782,-3108.864956,3701.029710,-71246.881314
1523.300331,-8734.430116,9326.594869,-71553.319513
1523.302879,6069.688724,11991.336260,-66190.651027
1523.305428,-6069.688724,-740.205942,-76149.892501
1523.307976,148.041188,12287.418637,-75077.358804
1523.310524,5329.482782,7402.059420,-73545.167808
1523.313073,-4293.194464,5181.441594,-79980.369991
1523.315621,1628.453072,7105.977043,-78754.617194
1523.318170,2072.576638,13915.871710,-76456.330700
1523.320718,-6661.853478,4145.153275,-78907.836294
1523.323266,4589.276840,5181.441594,-77375.645298
1523.325815,5921.647536,12287.418637,-74311.263306
1523.328363,-7550.100608,-6069.688724,-78601.398095
1523.330912,3108.864956,6957.935855,-69408.252119
1523.333460,-10066.800811,3108.864956,-70787.224015
1523.336008,15840.407159,12287.418637,-71093.662214
1523.338563,-12879.583391,11399.171507,-69408.252119
1523.341117,31828.855506,22206.178260,-65424.555529
1523.343672,6069.688724,-2368.659014,-84730.162079
1523.346226,-42931.944636,-11695.253884,-73545.167808
1523.348781,31532.773129,18505.148550,-51634.836565
1523.351335,-31088.649564,-28868.031738,-85189.819378
1523.353890,12287.418637,16876.695478,-68029.280222
1523.356444,15396.283594,7846.182985,-76762.768900
1523.358999,-37898.544230,3256.906145,-82125.437386
1523.361553,16432.571912,8734.430116,-76456.330700
1523.364108,-28127.825796,-12731.542202,-80440.027290
1523.366662,6069.688724,-4589.276840,-85649.476676
1523.369217,-148.041188,-7105.977043,-82125.437386
1523.371771,-26499.372724,-7105.977043,-79214.274493
1523.374326,148.041188,-7550.100608,-83964.066581
1523.376880,-2812.782580,11251.130318,-69867.909418
1523.379435,-4589.276840,11399.171507,-70480.785816
1523.381989,-296.082377,0.000000,-79214.274493
1523.384544,-9178.553681,5773.606348,-70634.004916
1523.387098,-6217.729913,-2072.576638,-78448.178995
1523.389653,-3256.906145,1184.329507,-78294.959896
1523.392207,-7994.224174,5181.441594,-76149.892501
1523.394762,-4589.276840,-2812.782580,-79367.493593
1523.397316,-18801.230927,-1332.370696,-74617.701505
1523.399871,-9770.718434,-10066.800811,-76915.987999
1523.402425,740.205942,-2516.700203,-75996.673402
1523.404980,148.041188,5329.482782,-77682.083497
1523.407534,-8438.347739,-1184.329507,-76609.549800
1523.410089,-2072.576638,17320.819043,-66343.870127
1523.412643,-14359.995275,-7550.100608,-74617.701505
1523.415198,7550.100608,13471.748144,-70634.004916
1523.417752,15692.365970,2072.576638,-73391.948708
1523.420307,-23834.631332,-2960.823768,-77528.864398
1523.422861,18061.024985,10955.047942,-75077.358804
1523.425416,-36418.132346,-10807.006753,-83504.409282
1523.427970,32421.020260,30644.525999,-59295.791545
1523.430525,12731.542202,-1924.535449,-83197.971083
1523.433079,-19837.519246,4441.235652,-79367.493593
1523.435634,30348.443622,22650.301825,-70634.004916
1523.438188,-32272.979071,-15544.324782,-87641.324971
1523.440747,13323.706956,-2072.576638,-77222.426198
1523.443306,6069.688724,-3552.988522,-80746.465489
1523.445865,-5921.647536,-8290.306550,-89939.611465
1523.448424,13323.706956,16284.530724,-74617.701505
1523.450983,-12583.501014,3701.029710,-80286.808190
1523.453541,-1480.411884,-740.205942,-83197.971083
1523.456100,8586.388927,14656.077652,-71246.881314
1523.458659,-444.123565,7254.018232,-67876.061123
1523.461218,296.082377,-2812.782580,-77222.426198
1523.463777,-7550.100608,11103.089130,-68795.375720
1523.466336,2960.823768,444.123565,-77222.426198
1523.468895,296.082377,1036.288319,-78294.959896
1523.471454,5033.400406,16136.489536,-72625.853210
1523.474012,8438.347739,9770.718434,-75230.577904
1523.476571,-10658.965565,16284.530724,-69714.690318
1523.479130,3256.906145,6809.894666,-74464.482406
1523.481689,-3997.112087,3701.029710,-75996.673402
1523.484248,16728.654289,12879.583391,-75077.358804
1523.486807,-2220.617826,-1332.370696,-79367.493593
1523.489366,-8438.347739,4145.153275,-77988.521696
1523.491924,-2812.782580,-2368.659014,-83657.628382
1523.494483,11695.253884,9770.718434,-77375.645298
1523.497042,-13027.624579,-3997.112087,-84423.723880
1523.499601,22798.343014,23686.590144,-69714.690318
1523.502160,-12583.501014,-7550.100608,-85802.695776
1523.504719,-34937.720462,-2072.576638,-68795.375720
1523.507278,22798.343014,14952.160028,-57610.381450
1523.509837,-33161.226202,-27831.743419,-84423.723880
1523.512395,34197.514520,20577.725188,-63739.145434
1523.514954,-8142.265362,-5477.523971,-76762.768900
1523.517513,-21465.972318,2516.700203,-80440.027290
1523.520072,17172.777854,9918.759623,-79214.274493
1523.522631,-12879.583391,-4737.318029,-77988.521696
1523.525190,-2368.659014,-4589.276840,-85343.038477
1523.527749,5181.441594,0.000000,-76303.111601
1523.530307,-29756.278868,-4737.318029,-73085.510509
1523.532866,-2812.782580,-3256.906145,-73238.729609
1523.535425,-6809.894666,13915.871710,-66343.870127
1523.537984,2664.741391,-2368.659014,-83351.190182
1523.540543,-4145.153275,6365.771101,-77375.645298
1523.543113,-7994.224174,7846.182985,-71246.881314
1523.545676,-6365.771101,-7550.100608,-81665.780087
1523.548239,-6957.935855,4589.276840,-79520.712692
1523.550802,2960.823768,-1184.329507,-82585.094684
1523.553364,-6069.688724,-1924.535449,-79673.931792
1523.555927,-14656.077652,-3849.070898,-73545.167808
1523.558490,-5329.482782,-11399.171507,-77375.645298
1523.561053,-2516.700203,-592.164754,-78754.617194
1523.563615,-9622.677246,1480.411884,-78141.740796
1523.566178,7254.018232,9918.759623,-74464.482406
1523.568741,-25759.166782,-2368.659014,-79980.369991
1523.571304,9918.759623,9770.718434,-73851.606007
1523.573866,-24130.713709,-8438.347739,-78907.836294
1523.576429,9622.677246,12879.583391,-70940.443115
1523.578992,-21614.013506,-11547.212695,-80593.246390
1523.581555,-1924.535449,19393.395680,-62206.954438
1523.584117,19097.313304,592.164754,-80746.465489
1523.586680,-26795.455100,-1924.535449,-78294.959896
1523.589243,43079.985824,42487.821071,-61134.420740
1523.591806,-37898.544230,-15100.201217,-91012.145162
1523.594369,-35825.967593,-592.164754,-70940.443115
1523.596931,29460.196492,17024.736666,-61900.516238
1523.599494,-27831.743419,-9622.677246,-71553.319513
1523.602057,8586.388927,18061.024985,-63126.269035
1523.604620,15544.324782,21169.889941,-64505.240932
1523.607182,-19541.436869,3404.947333,-77528.864398
1523.609745,17172.777854,9030.512492,-80133.589091
1523.612308,-7994.224174,1332.370696,-82431.875585
1523.614871,-740.205942,-3108.864956,-85802.695776
1523.617433,-2960.823768,7105.977043,-74617.701505
1523.619996,-5329.482782,-740.205942,-80286.808190
1523.622559,-4145.153275,-888.247130,-82125.437386
1523.625122,4441.235652,11843.295072,-68642.156621
1523.627684,-1776.494261,3997.112087,-77835.302597
1523.630247,2812.782580,11695.253884,-77682.083497
1523.632810,-740.205942,15100.201217,-71093.662214
1523.635373,-9326.594869,592.164754,-75383.797003
1523.637935,9622.677246,3552.988522,-76915.987999
1523.640498,-6217.729913,7550.100608,-77528.864398
1523.643061,3701.029710,5181.441594,-75996.673402
1523.645627,-4441.235652,5773.606348,-78907.836294
1523.648193,-6365.771101,-2368.659014,-78601.398095
1523.650759,12139.377449,13175.665768,-72779.072310
1523.653326,-9622.677246,-9474.636058,-91165.364262
1523.655892,-2960.823768,24278.754898,-72166.195912
1523.658458,18653.189738,7846.182985,-78141.740796
1523.661024,-52702.663070,-23094.425390,-77988.521696
1523.663590,33013.185013,14952.160028,-55771.752254
1523.666156,15692.365970,-1332.370696,-80440.027290
1523.668722,-41747.615129,-6661.853478,-84270.504780
1523.671289,27239.578666,26795.455100,-60827.982541
1523.673855,-27535.661042,3701.029710,-71706.538613
1523.676421,-148.041188,3552.988522,-68642.156621
1523.678987,-296.082377,12287.418637,-60827.982541
1523.681553,-16580.613101,1036.288319,-71859.757712
1523.684119,7846.182985,3404.947333,-74617.701505
1523.686686,-23094.425390,296.082377,-70940.443115
1523.689252,-8586.388927,-10362.883188,-83504.409282
1523.691818,-2960.823768,6069.688724,-72779.072310
1523.694384,-1184.329507,1480.411884,-79520.712692
1523.696950,-2812.782580,-2368.659014,-87028.448573
1523.699516,-12287.418637,9622.677246,-74004.825107
1523.702082,-6069.688724,2960.823768,-72319.415011
1523.704649,-9770.718434,-2664.741391,-74311.263306
1523.707215,-6365.771101,4293.194464,-69714.690318
1523.709781,-7846.182985,-9178.553681,-76303.111601
1523.712347,-4441.235652,1332.370696,-73545.167808
1523.714913,740.205942,888.247130,-78294.959896
1523.717479,-14804.118840,-592.164754,-73851.606007
1523.720045,5477.523971,9326.594869,-74004.825107
1523.722612,-20281.642811,-6217.729913,-84117.285680
1523.725178,9030.512492,11991.336260,-75537.016103
1523.727744,-21465.972318,-7105.977043,-83351.190182
1523.730310,6957.935855,7105.977043,-71246.881314
1523.732876,-29312.155303,-8586.388927,-77069.207099
1523.735442,8290.306550,16728.654289,-62360.173537
1523.738008,31088.649564,18061.024985,-71553.319513
1523.740575,-28719.990550,-7698.141797,-86722.010374
1523.743141,34789.679274,41007.409187,-58223.257848
1523.745707,-9622.677246,1036.288319,-79214.274493
1523.748276,-19245.354492,7550.100608,-72012.976812
1523.750845,25611.125593,13471.748144,-67876.061123
1523.753414,-34937.720462,-11991.336260,-76609.549800
1523.755983,17172.777854,15396.283594,-68182.499322
1523.758552,1184.329507,14804.118840,-73391.948708
1523.761121,-12287.418637,1036.288319,-82738.313784
1523.763690,13915.871710,6957.935855,-80746.465489
1523.766259,-13915.871710,1924.535449,-80899.684589
1523.768828,7254.018232,-2812.782580,-84423.723880
1523.771397,-2812.782580,5329.482782,-80133.589091
1523.773966,-4293.194464,1332.370696,-81512.560987
1523.776535,592.164754,-148.041188,-80286.808190
1523.779104,-592.164754,8290.306550,-71706.538613
1523.781673,740.205942,5477.523971,-77222.426198
1523.784242,5773.606348,11251.130318,-77682.083497
1523.786811,-10807.006753,9622.677246,-75690.235202
1523.789380,1480.411884,1924.535449,-76456.330700
1523.791949,-1480.411884,12731.542202,-72166.195912
1523.794518,1332.370696,2368.659014,-78448.178995
1523.797087,-4885.359217,1924.535449,-79520.712692
1523.799656,-5477.523971,1776.494261,-77835.302597
1523.802225,12435.459826,9178.553681,-75996.673402
1523.804794,-10955.047942,-9474.636058,-86415.572174
1523.807363,17024.736666,28423.908173,-65730.993728
1523.809932,25759.166782,15840.407159,-68182.499322
1523.812501,-47669.262665,-29164.114115,-86568.791274
1523.815070,24130.713709,13915.871710,-63892.364533
1523.817639,-1036.288319,-16432.571912,-85189.819378
1523.820208,-31828.855506,2960.823768,-75230.577904
1523.822777,24278.754898,23834.631332,-64811.679131
1523.825346,-36714.214723,3404.947333,-77835.302597
1523.827915,5921.647536,8142.265362,-75537.016103
1523.830484,-7105.977043,-2960.823768,-78448.178995
1523.833053,-11695.253884,-9030.512492,-87488.105872
1523.835622,9178.553681,-1628.453072,-81359.341888
1523.838191,-31236.690752,-6365.771101,-80746.465489
1523.840760,-6513.812290,-7994.224174,-85496.257577
1523.843329,-6217.729913,6957.935855,-76303.111601
1523.845898,1924.535449,-2516.700203,-83964.066581
1523.848467,-1628.453072,-1924.535449,-87181.667672
1523.851009,-7402.059420,7105.977043,-76303.111601
1523.853551,-10807.006753,-1332.370696,-78601.398095
1523.856093,-8586.388927,-5329.482782,-78907.836294
1523.858635,-12287.418637,-3701.029710,-79673.931792
1523.861177,-296.082377,-6069.688724,-81206.122788
1523.863719,-6661.853478,1036.288319,-75690.235202
1523.866261,-7550.100608,2516.700203,-74311.263306
1523.868803,-4737.318029,-7994.224174,-75996.673402
1523.871345,-8882.471304,8438.347739,-72779.072310
1523.873887,3997.112087,-1776.494261,-76762.768900
1523.876429,-11547.212695,10066.800811,-69255.033019
1523.878972,11399.171507,2220.617826,-73238.729609
1523.881514,-35381.844028,-6957.935855,-77528.864398
1523.884056,18801.230927,14508.036463,-68488.937521
1523.886598,-21614.013506,-15396.283594,-88254.201370
1523.889140,7402.059420,22650.301825,-63892.364533
1523.891682,23538.548956,12287.418637,-81818.999186
1523.894224,-29312.155303,-7254.018232,-90705.706963
1523.896766,24722.878463,26203.290347,-66956.746525
1523.899308,-18949.272115,-7550.100608,-87028.448573
1523.901850,-2960.823768,-3997.112087,-83810.847481
1523.904392,15840.407159,4441.235652,-79673.931792
1523.906934,-16136.489536,-8438.347739,-84423.723880
1523.909476,13175.665768,14804.118840,-71093.662214
1523.912018,-6661.853478,12731.542202,-66343.870127
1523.914560,6365.771101,7698.141797,-73698.386908
1523.917103,6513.812290,8734.430116,-75537.016103
1523.919645,-740.205942,10214.842000,-70787.224015
1523.922187,1036.288319,-592.164754,-78754.617194
1523.924729,-3997.112087,6661.853478,-73238.729609
1523.927271,1184.329507,2220.617826,-73851.606007
1523.929813,-444.123565,5921.647536,-80899.684589
1523.932355,1332.370696,11695.253884,-77988.521696
1523.934897,148.041188,2516.700203,-80133.589091
1523.937439,888.247130,12879.583391,-72932.291410
1523.939981,-4589.276840,6513.812290,-74924.139704
1523.942523,-444.123565,5033.400406,-76303.111601
1523.945065,888.247130,8290.306550,-77069.207099
1523.947607,-6365.771101,444.123565,-75383.797003
1523.950149,15988.448347,16284.530724,-66037.431928
1523.952698,1036.288319,-6661.853478,-86109.133975
1523.955247,-17616.901420,16876.695478,-70787.224015
1523.957796,25611.125593,18505.148550,-70021.128517
1523.960345,-41451.532752,-31532.773129,-87794.544071
1523.962894,21614.013506,17616.901420,-61747.297139
1523.965443,-1924.535449,-17468.860231,-83351.190182
1523.967992,-32569.061448,-1776.494261,-78448.178995
1523.970541,22354.219448,23686.590144,-70327.566716
1523.973090,-33013.185013,-2812.782580,-84576.942979
1523.975639,1332.370696,7846.182985,-80746.465489
1523.978188,-7994.224174,-4145.153275,-81052.903688
1523.980737,-13471.748144,-14211.954086,-89173.515967
1523.983286,4293.194464,1480.411884,-79980.369991
1523.985834,-22946.384202,-5033.400406,-76762.768900
1523.988383,-11103.089130,-11103.089130,-89326.735067
1523.990932,-5921.647536,2516.700203,-80286.808190
1523.993481,2812.782580,2664.741391,-76609.549800
1523.996030,-6809.894666,-4589.276840,-85496.257577
1523.998579,-3404.947333,7994.224174,-74924.139704
1524.001128,-7550.100608,1184.329507,-75383.797003
1524.003677,-20281.642811,-3404.947333,-74158.044206
1524.006226,1036.288319,-2072.576638,-70940.443115
1524.008775,-1628.453072,-2664.741391,-74311.263306
1524.011324,-6809.894666,3108.864956,-73851.606007
1524.013873,-13471.748144,-3256.906145,-77682.083497
1524.016422,-6957.935855,9030.512492,-72166.195912
1524.018971,-10066.800811,-6365.771101,-77988.521696
1524.021520,2220.617826,14359.995275,-67263.184724
1524.024068,2664.741391,-148.041188,-71859.757712
1524.026617,-5921.647536,8882.471304,-65884.212828
1524.029166,888.247130,-8734.430116,-77835.302597
1524.031715,-21910.095883,-6217.729913,-78601.398095
1524.034264,35825.967593,26499.372724,-69867.909418
1524.036813,-27091.537477,-13471.748144,-88100.982270
1524.039362,9326.594869,28423.908173,-64198.802732
1524.041911,10658.965565,12731.542202,-73391.948708
1524.044460,-22502.260637,-5625.565159,-75996.673402
1524.047009,30348.443622,19837.519246,-60061.887043
1524.049558,-21614.013506,-4293.194464,-65577.774629
1524.052107,8290.306550,15544.324782,-60215.106143
1524.054662,11399.171507,26943.496289,-59142.572446
1524.057216,-10066.800811,10510.924376,-70327.566716
1524.059771,13619.789333,9622.677246,-77222.426198
1524.062326,2664.741391,14359.995275,-66343.870127
1524.064881,2072.576638,2664.741391,-70174.347617
1524.067436,-3701.029710,4885.359217,-71246.881314
1524.069991,740.205942,9326.594869,-68642.156621
1524.072546,3108.864956,7550.100608,-72779.072310
1524.075101,-1332.370696,14508.036463,-64198.802732
1524.077655,1184.329507,8290.306550,-67263.184724
1524.080210,1924.535449,9178.553681,-74617.701505
1524.082765,11991.336260,14508.036463,-76303.111601
1524.085320,-8438.347739,2960.823768,-80899.684589
1524.087875,2664.741391,8586.388927,-72166.195912
1524.090430,-1184.329507,1628.453072,-76149.892501
1524.092985,-6957.935855,148.041188,-75996.673402
1524.095539,-740.205942,17320.819043,-67263.184724
1524.098094,17616.901420,6809.894666,-75383.797003
1524.100649,-29608.237680,3108.864956,-73698.386908
1524.103204,34937.720462,25167.002028,-60674.763442
1524.105759,-35974.008781,-31088.649564,-90858.926063
1524.108314,-10955.047942,5477.523971,-68948.594820
1524.110869,21021.848753,6661.853478,-72319.415011
1524.113424,-48261.427418,-8734.430116,-79827.150892
1524.115978,25463.084405,24426.796086,-59295.791545
1524.118533,-15100.201217,1924.535449,-72472.634111
1524.121088,-10807.006753,4293.194464,-75230.577904
1524.123643,6661.853478,11251.130318,-67263.184724
1524.126198,-28127.825796,-6809.894666,-77375.645298
1524.128753,7846.182985,3404.947333,-83657.628382
1524.131308,888.247130,888.247130,-74311.263306
1524.133862,-15248.242405,-3108.864956,-76609.549800
1524.136417,592.164754,-3256.906145,-81972.218286
1524.138972,-3997.112087,8142.265362,-72166.195912
1524.141527,-4441.235652,444.123565,-79673.931792
1524.144082,-1480.411884,5921.647536,-71400.100414
1524.146637,-18653.189738,1184.329507,-70940.443115
1524.149192,-3256.906145,-3108.864956,-74004.825107
1524.151746,-740.205942,592.164754,-73238.729609
1524.154301,-740.205942,2072.576638,-74311.263306
1524.156832,-10658.965565,-4145.153275,-72779.072310
1524.159363,-4145.153275,4737.318029,-73391.948708
1524.161894,-18949.272115,-4441.235652,-76915.987999
1524.164425,9622.677246,8142.265362,-67876.061123
1524.166956,-6217.729913,-1924.535449,-78141.740796
1524.169487,-1776.494261,14359.995275,-64352.021832
1524.172017,-7254.018232,-9622.677246,-75230.577904
1524.174548,-15248.242405,2812.782580,-68642.156621
1524.177079,34345.555709,15100.201217,-74617.701505
1524.179610,-32569.061448,-10362.883188,-90092.830565
1524.182141,36270.091158,38786.791361,-60674.763442
1524.184672,-9770.718434,296.082377,-76915.987999
1524.187203,-19689.478057,9474.636058,-67569.622924
1524.189733,33013.185013,21910.095883,-60215.106143
1524.192264,-36714.214723,-4293.194464,-69101.813920
1524.194795,24870.919651,21465.972318,-61287.639840
1524.197326,3552.988522,15544.324782,-64505.240932
1524.199857,-12879.583391,6809.894666,-68335.718422
1524.202388,16580.613101,9622.677246,-74158.044206
1524.204919,-4885.359217,9770.718434,-73085.510509
1524.207449,-7402.059420,5181.441594,-69101.813920
1524.209980,2368.659014,4589.276840,-76609.549800
1524.212511,2664.741391,11695.253884,-67569.622924
1524.215042,3404.947333,2220.617826,-71706.538613
1524.217573,148.041188,11991.336260,-69561.471218
1524.220104,2516.700203,13027.624579,-72932.291410
1524.222635,10955.047942,8734.430116,-80440.027290
1524.225166,-7254.018232,10362.883188,-75537.016103
1524.227696,-592.164754,2664.741391,-75230.577904
1524.230227,-1924.535449,2516.700203,-78754.617194
1524.232758,-3108.864956,0.000000,-79673.931792
1524.235289,16876.695478,12287.418637,-71859.757712
1524.237820,-6069.688724,-8290.306550,-86722.010374
1524.240351,-7994.224174,19393.395680,-70940.443115
1524.242882,18653.189738,2516.700203,-75843.454302
1524.245412,-46336.891969,-20873.807564,-79367.493593
1524.247943,35381.844028,18949.272115,-58376.476948
1524.250474,-17172.777854,-24130.713709,-85343.038477
1524.253005,-10510.924376,7402.059420,-72625.853210
1524.255536,14804.118840,10362.883188,-72319.415011
1524.258076,-36418.132346,-2220.617826,-83504.409282
1524.260617,18209.066173,12139.377449,-81818.999186
1524.263157,-14804.118840,-14063.912898,-88407.420469
1524.265697,-17024.736666,-17320.819043,-91318.583362
1524.268238,8290.306550,-5477.523971,-82278.656485
1524.270778,-26795.455100,-1776.494261,-78141.740796
1524.273318,2960.823768,6217.729913,-76149.892501
1524.275859,-6365.771101,2516.700203,-77375.645298
1524.278399,-5773.606348,888.247130,-74311.263306
1524.280940,148.041188,3108.864956,-75077.358804
1524.283480,-9030.512492,5477.523971,-71706.538613
1524.286020,-11695.253884,-1628.453072,-79214.274493
1524.288561,1776.494261,-3997.112087,-77375.645298
1524.291101,-10658.965565,-4145.153275,-76762.768900
1524.293641,-2664.741391,0.000000,-75383.797003
1524.296182,-8290.306550,-5181.441594,-77988.521696
1524.298722,-8586.388927,4293.194464,-75537.016103
1524.301262,-6217.729913,-4293.194464,-72166.195912
1524.303803,-3552.988522,10955.047942,-67876.061123
1524.306343,-2072.576638,-1776.494261,-72932.291410
1524.308884,740.205942,19393.395680,-65118.117330
1524.311424,10066.800811,-3701.029710,-78448.178995
1524.313964,-26943.496289,-8290.306550,-80899.684589
1524.316505,43524.109390,30940.608376,-66190.651027
1524.319045,-22946.384202,-13175.665768,-87794.544071
1524.321585,-1628.453072,22798.343014,-66190.651027
1524.324126,22206.178260,16432.571912,-72779.072310
1524.326666,-20429.683999,-9030.512492,-79980.369991
1524.329206,23538.548956,16432.571912,-61900.516238
1524.331747,-16284.530724,-8882.471304,-69255.033019
1524.334287,444.123565,12287.418637,-64658.460031
1524.336828,15396.283594,26943.496289,-60521.544342
1524.339368,-6217.729913,2664.741391,-75077.358804
1524.341908,12879.583391,8586.388927,-75077.358804
1524.344449,4885.359217,15988.448347,-64658.460031
1524.346989,-2516.700203,1184.329507,-68795.375720
1524.349529,-1480.411884,4589.276840,-75690.235202
1524.352070,8290.306550,12879.583391,-67569.622924
1524.354610,4293.194464,2368.659014,-74924.139704
1524.357151,-5033.400406,12435.459826,-71553.319513
1524.359699,6809.894666,10658.965565,-75077.358804
1524.362247,3256.906145,14952.160028,-76915.987999
1524.364796,-1924.535449,-1036.288319,-82585.094684
1524.367344,-1776.494261,-2960.823768,-79367.493593
1524.369893,-1332.370696,7698.141797,-74770.920605
1524.372441,3404.947333,-1628.453072,-79367.493593
1524.374990,-5477.523971,20281.642811,-67722.842023
1524.377538,19541.436869,11103.089130,-72166.195912
1524.380086,-23686.590144,-13767.830521,-85189.819378
1524.382635,296.082377,20577.725188,-65271.336430
1524.385183,-296.082377,-4589.276840,-80133.589091
1524.387732,-43376.068201,-18801.230927,-81206.122788
1524.390280,27535.661042,20133.601622,-59755.448844
1524.392829,-28127.825796,-15544.324782,-79214.274493
1524.395377,7994.224174,11399.171507,-68182.499322
1524.397925,7550.100608,15396.283594,-63892.364533
1524.400474,-20577.725188,2220.617826,-66190.651027
1524.403022,12139.377449,14804.118840,-56844.285952
1524.405571,-7254.018232,-5181.441594,-64505.240932
1524.408119,-4885.359217,592.164754,-76762.768900
1524.410668,-592.164754,6809.894666,-74464.482406
1524.413216,-8882.471304,1776.494261,-74158.044206
1524.415765,2072.576638,4589.276840,-72779.072310
1524.418313,-4293.194464,8290.306550,-68642.156621
1524.420861,-9178.553681,-740.205942,-73851.606007
1524.423410,-8438.347739,5921.647536,-73238.729609
1524.425958,-3256.906145,-3404.947333,-73391.948708
1524.428507,-5033.400406,-1628.453072,-72779.072310
1524.431055,-5625.565159,1480.411884,-70940.443115
1524.433604,-6661.853478,-5625.565159,-78907.836294
1524.436152,-6217.729913,9622.677246,-73085.510509
1524.438700,-9770.718434,-8882.471304,-76149.892501
1524.441255,-5625.565159,10510.924376,-68948.594820
1524.443809,3997.112087,-2072.576638,-76609.549800
1524.446364,-10658.965565,11251.130318,-69561.471218
1524.448918,1628.453072,-6661.853478,-77069.207099
1524.451473,-29460.196492,-15396.283594,-88100.982270
1524.454027,36418.132346,30348.443622,-65884.212828
1524.456581,-11103.089130,-10066.800811,-84576.942979
1524.459136,-14656.077652,17468.860231,-64964.898230
1524.461690,29016.072926,21169.889941,-66650.308326
1524.464245,-18061.024985,-5477.523971,-75690.235202
1524.466799,17912.983796,17616.901420,-61287.639840
1524.469354,-3849.070898,-2960.823768,-64811.679131
1524.471908,-5921.647536,8882.471304,-65577.774629
1524.474462,16876.695478,24426.796086,-62666.611736
1524.477017,-5625.565159,8586.388927,-74004.825107
1524.479571,6957.935855,5625.565159,-82585.094684
1524.482126,-4737.318029,13767.830521,-68795.375720
1524.484680,-3108.864956,-5921.647536,-64964.898230
1524.487235,-1332.370696,-592.164754,-79673.931792
1524.489789,7550.100608,14804.118840,-68029.280222
1524.492343,12731.542202,5773.606348,-74311.263306
1524.494898,-11695.253884,9918.759623,-76149.892501
1524.497452,15692.365970,17024.736666,-75077.358804
1524.500007,-11547.212695,3404.947333,-80593.246390
1524.502561,-2072.576638,-888.247130,-78141.740796
1524.505116,8142.265362,6069.688724,-73391.948708
1524.507670,-13915.871710,-3256.906145,-76915.987999
1524.510224,21465.972318,15544.324782,-72472.634111
1524.512779,-14656.077652,-3849.070898,-83351.190182
1524.515333,8142.265362,27979.784608,-66650.308326
1524.517888,9474.636058,888.247130,-80593.246390
1524.520442,-42783.903448,-10807.006753,-70940.443115
1524.522997,21317.931130,11991.336260,-67263.184724
1524.525551,-3997.112087,-13471.748144,-81359.341888
1524.528105,-32421.020260,-740.205942,-75843.454302
1524.530660,25759.166782,19837.519246,-67416.403824
1524.533214,-32272.979071,-888.247130,-81052.903688
1524.535769,7550.100608,13915.871710,-76915.987999
1524.538323,-4145.153275,-1332.370696,-78294.959896
1524.540878,-24426.796086,-18949.272115,-86722.010374
1524.543438,9326.594869,-2960.823768,-78294.959896
1524.545998,-27239.578666,3997.112087,-74004.825107
1524.548557,4293.194464,-1184.329507,-83504.409282
1524.551117,-11547.212695,3108.864956,-75843.454302
1524.553677,1480.411884,1776.494261,-73391.948708
1524.556237,-7254.018232,-1184.329507,-78141.740796
1524.558797,-14508.036463,-2368.659014,-81818.999186
1524.561356,-5625.565159,-1036.288319,-79673.931792
1524.563916,-3404.947333,-4441.235652,-78754.617194
1524.566476,-21762.054695,-3256.906145,-74158.044206
1524.569036,5625.565159,-3404.947333,-77682.083497
1524.571596,-12287.418637,148.041188,-79214.274493
1524.574155,-5033.400406,-6069.688724,-80133.589091
1524.576715,-3404.947333,10510.924376,-69867.909418
1524.579275,-4589.276840,-4589.276840,-79061.055394
1524.581835,-9326.594869,12879.583391,-67569.622924
1524.584395,7254.018232,-9178.553681,-79673.931792
1524.586954,-25759.166782,-2220.617826,-75996.673402
1524.589514,39823.079680,24130.713709,-68642.156621
1524.592074,-34493.596897,-12139.377449,-85802.695776
1524.594634,-21317.931130,12879.583391,-70787.224015
1524.597193,35825.967593,25611.125593,-61900.516238
1524.599753,-21465.972318,-5181.441594,-77375.645298
1524.602313,13619.789333,10362.883188,-68335.718422
1524.604873,-1628.453072,-1036.288319,-70327.566716
1524.607433,-11103.089130,1628.453072,-75843.454302
1524.609992,18209.066173,19689.478057,-69714.690318
1524.612552,-7402.059420,10362.883188,-75077.358804
1524.615112,5329.482782,-1924.535449,-89633.173266
1524.617672,-10658.965565,13471.748144,-69255.033019
1524.620232,0.000000,-1628.453072,-77988.521696
1524.622791,3404.947333,-6957.935855,-91012.145162
1524.625351,-6365.771101,9178.553681,-74158.044206
1524.627911,11547.212695,11695.253884,-72472.634111
1524.630471,4885.359217,8882.471304,-79061.055394
1524.633031,-10066.800811,11547.212695,-75996.673402
1524.635590,9918.759623,6957.935855,-72472.634111
1524.638150,-3849.070898,-1332.370696,-76609.549800
1524.640710,-5921.647536,-444.123565,-78907.836294
1524.643270,13767.830521,8290.306550,-74311.263306
1524.645834,-18653.189738,296.082377,-80746.465489
1524.648398,29460.196492,27239.578666,-70480.785816
1524.650963,-18357.107362,-10658.965565,-86415.572174
1524.653527,-21317.931130,14952.160028,-64352.021832
1524.656091,19097.313304,7105.977043,-65424.555529
1524.658655,-49889.880491,-26647.413912,-80133.589091
1524.661220,38046.585419,19541.436869,-58682.915147
1524.663784,-19985.560434,-9326.594869,-75230.577904
1524.666348,-32272.979071,-3701.029710,-83504.409282
1524.668912,28571.949361,17764.942608,-76149.892501
1524.671477,-25759.166782,-11695.253884,-81359.341888
1524.674041,-11843.295072,-9326.594869,-79061.055394
1524.676605,12879.583391,0.000000,-71400.100414
1524.679169,-18801.230927,-1480.411884,-75077.358804
1524.681734,3552.988522,11399.171507,-75537.016103
1524.684298,-9622.677246,12287.418637,-65118.117330
1524.686862,-888.247130,-4145.153275,-76149.892501
1524.689427,-2664.741391,7105.977043,-69867.909418
1524.691991,-7698.141797,-5329.482782,-78141.740796
1524.694555,-7402.059420,-3849.070898,-82125.437386
1524.697119,-1480.411884,2072.576638,-72932.291410
1524.699684,-19689.478057,-8734.430116,-76149.892501
1524.702248,3552.988522,-2812.782580,-77682.083497
1524.704812,-10510.924376,3997.112087,-77375.645298
1524.707376,2960.823768,-2368.659014,-79980.369991
1524.709941,-13175.665768,4145.153275,-75690.235202
1524.712505,5921.647536,740.205942,-79520.712692
1524.715069,-28868.031738,-4441.235652,-75843.454302
1524.717634,20133.601622,10658.965565,-74617.701505
1524.720198,-34641.638086,-17616.901420,-91625.021561
1524.722762,32865.143825,32865.143825,-58529.696047
1524.725326,4589.276840,-740.205942,-81206.122788
1524.727891,-21021.848753,3256.906145,-74004.825107
1524.730455,33309.267390,26647.413912,-63892.364533
1524.733019,-15988.448347,-6365.771101,-84117.285680
1524.735583,4737.318029,8142.265362,-76762.768900
1524.738148,15692.365970,6069.688724,-75077.358804
1524.740712,-23390.507767,-3849.070898,-77375.645298
1524.743276,16432.571912,16876.695478,-70634.004916
1524.745841,1480.411884,24574.837274,-65118.117330
1524.748409,-148.041188,-1776.494261,-78601.398095
1524.750977,-4885.359217,1480.411884,-74158.044206
1524.753545,-6661.853478,10658.965565,-69867.909418
1524.756113,-2220.617826,-4885.359217,-87947.763170
1524.758681,2072.576638,9622.677246,-75230.577904
1524.761249,13619.789333,6365.771101,-77069.207099
1524.763817,-8438.347739,18653.189738,-75996.673402
1524.766385,-592.164754,12287.418637,-75537.016103
1524.768953,-444.123565,740.205942,-75230.577904
1524.771521,6513.812290,7402.059420,-69867.909418
1524.774089,5625.565159,1036.288319,-73085.510509
1524.776657,-9178.553681,17616.901420,-70480.785816
1524.779225,11251.130318,14656.077652,-76762.768900
1524.781793,-21762.054695,8290.306550,-73391.948708
1524.784361,31236.690752,23242.466579,-62513.392637
1524.786929,-35974.008781,-38342.667796,-94536.184453
1524.789497,-4737.318029,4145.153275,-71553.319513
1524.792065,5477.523971,-6069.688724,-84423.723880
1524.794633,-37010.297100,-6661.853478,-83964.066581
1524.797201,16876.695478,18653.189738,-72166.195912
1524.799769,-17024.736666,-740.205942,-81972.218286
1524.802337,-5033.400406,9178.553681,-80899.684589
1524.804905,-2664.741391,3404.947333,-77682.083497
1524.807473,-28571.949361,-19393.395680,-84423.723880
1524.810041,1776.494261,-9770.718434,-85189.819378
1524.812609,-6809.894666,8290.306550,-72779.072310
1524.815177,-6513.812290,-4145.153275,-80593.246390
1524.817745,-1184.329507,2516.700203,-84117.285680
1524.820313,-4293.194464,5329.482782,-74464.482406
1524.822881,-12583.501014,1776.494261,-79520.712692
1524.825449,-1628.453072,6661.853478,-71706.538613
1524.828017,-7402.059420,-7105.977043,-73238.729609
1524.830584,-13323.706956,-3552.988522,-70634.004916
1524.833152,-296.082377,-2812.782580,-72625.853210
1524.835720,-14063.912898,1184.329507,-76762.768900
1524.838288,-1332.370696,-296.082377,-76456.330700
1524.840856,-3256.906145,6069.688724,-75383.797003
1524.843424,-3552.988522,-4145.153275,-79520.712692
1524.845992,-22206.178260,-592.164754,-76149.892501
1524.848560,19097.313304,-592.164754,-81206.122788
1524.851131,-35233.802839,-11991.336260,-87641.324971
1524.853701,37010.297100,30644.525999,-61747.297139
1524.856272,-6365.771101,-7105.977043,-83657.628382
1524.858842,-13767.830521,12139.377449,-70174.347617
1524.861412,30644.525999,21169.889941,-69255.033019
1524.863983,-21169.889941,-6957.935855,-82585.094684
1524.866553,13619.789333,11547.212695,-69101.813920
1524.869123,-1480.411884,592.164754,-69255.033019
1524.871694,-7254.018232,2664.741391,-71093.662214
1524.874264,19985.560434,15100.201217,-68488.937521
1524.876835,-5773.606348,15692.365970,-69561.471218
1524.879405,6365.771101,0.000000,-80286.808190
1524.881975,148.041188,9770.718434,-66497.089226
1524.884546,-2072.576638,12435.459826,-61900.516238
1524.887116,740.205942,-7550.100608,-81206.122788
1524.889686,0.000000,14804.118840,-70480.785816
1524.892257,17912.983796,11547.212695,-76149.892501
1524.894827,-10510.924376,14063.912898,-77835.302597
1524.897397,444.123565,15248.242405,-70327.566716
1524.899968,0.000000,-6661.853478,-79214.274493
1524.902538,-4293.194464,3404.947333,-74004.825107
1524.905109,10658.965565,5033.400406,-72319.415011
1524.907679,-15248.242405,15544.324782,-69101.813920
1524.910249,19245.354492,18801.230927,-70940.443115
1524.912820,-25759.166782,-3404.947333,-74924.139704
1524.915390,-11695.253884,17764.942608,-63126.269035
1524.917960,17320.819043,3552.988522,-72166.195912
1524.920531,-44412.356520,-27239.578666,-80899.684589
1524.923101,25315.043216,14359.995275,-60827.982541
1524.925672,-23538.548956,-9622.677246,-75230.577904
1524.928242,2220.617826,9474.636058,-63585.926334
1524.930812,19837.519246,22206.178260,-60827.982541
1524.933383,-24426.796086,2812.782580,-67416.403824
1524.935953,5921.647536,10510.924376,-63279.488135
1524.938523,-7105.977043,-8438.347739,-72012.976812
1524.941094,-11695.253884,-14359.995275,-83197.971083
1524.943664,3108.864956,9178.553681,-72166.195912
1524.946234,-4885.359217,0.000000,-78754.617194
1524.948805,-6365.771101,-444.123565,-84883.381178
1524.951375,444.123565,10658.965565,-67569.622924
1524.953948,-2812.782580,-1184.329507,-73698.386908
1524.956520,-14508.036463,-4737.318029,-77528.864398
1524.959093,0.000000,-3849.070898,-69408.252119
1524.961666,-8438.347739,-8586.388927,-74617.701505
1524.964238,-4737.318029,5773.606348,-73851.606007
1524.966811,-592.164754,-888.247130,-74617.701505
1524.969384,-2220.617826,13619.789333,-67263.184724
1524.971956,-740.205942,-2072.576638,-72166.195912
1524.974529,-2960.823768,14211.954086,-61900.516238
1524.977101,-7550.100608,-12139.377449,-73698.386908
1524.979674,-6365.771101,11251.130318,-64964.898230
1524.982247,27091.537477,14508.036463,-72779.072310
1524.984819,-26351.331535,-3849.070898,-81359.341888
1524.987392,7994.224174,31828.855506,-58529.696047
1524.989965,17024.736666,14508.036463,-69255.033019
1524.992537,-18949.272115,-4293.194464,-73238.729609
1524.995110,25611.125593,20281.642811,-62973.049936
1524.997682,-20281.642811,-5773.606348,-73545.167808
1525.000255,3404.947333,6069.688724,-74617.701505
1525.002828,3552.988522,6069.688724,-77835.302597
1525.005400,-3997.112087,3256.906145,-79827.150892
1525.007973,6217.729913,13471.748144,-78907.836294
1525.010546,-1480.411884,7846.182985,-73391.948708
1525.013118,-592.164754,-5477.523971,-80746.465489
1525.015691,-7698.141797,11695.253884,-67876.061123
1525.018263,11843.295072,9770.718434,-68948.594820
1525.020836,4885.359217,15396.283594,-73085.510509
1525.023409,-740.205942,18061.024985,-70634.004916
1525.025981,-2960.823768,7402.059420,-72166.195912
1525.028554,-1628.453072,6217.729913,-74311.263306
1525.031126,1332.370696,-2368.659014,-76609.549800
1525.033699,12139.377449,4737.318029,-76149.892501
1525.036272,-11399.171507,2220.617826,-78601.398095
1525.038844,24130.713709,22946.384202,-70021.128517
1525.041417,-5477.523971,-5329.482782,-87488.105872
1525.043990,-28275.866984,-1924.535449,-73238.729609
1525.046562,27535.661042,14952.160028,-58836.134246
1525.049135,-43524.109390,-33753.390955,-84883.381178
1525.051707,19689.478057,9030.512492,-69101.813920
1525.054280,-8734.430116,-7254.018232,-81665.780087
1525.056854,-19541.436869,-740.205942,-81512.560987
1525.059429,27387.619854,17912.983796,-75996.673402
1525.062003,-33753.390955,-6217.729913,-77528.864398
1525.064578,-20281.642811,-16136.489536,-85649.476676
1525.067152,0.000000,-1184.329507,-76149.892501
1525.069726,-15396.283594,5773.606348,-74004.825107
1525.072301,1332.370696,-444.123565,-81972.218286
1525.074875,-7254.018232,14359.995275,-65271.336430
1525.077450,-148.041188,0.000000,-74464.482406
1525.080024,-13027.624579,-1036.288319,-75996.673402
1525.082598,-4441.235652,6069.688724,-69561.471218
1525.085173,-8734.430116,-8438.347739,-79367.493593
1525.087747,-10955.047942,-9178.553681,-77682.083497
1525.090321,1628.453072,4589.276840,-74004.825107
1525.092896,-14656.077652,-444.123565,-76915.987999
1525.095470,2664.741391,9770.718434,-77835.302597
1525.098045,-10955.047942,-4737.318029,-77222.426198
1525.100619,592.164754,17616.901420,-63126.269035
1525.103193,-17764.942608,-14952.160028,-78448.178995
1525.105768,-1036.288319,12139.377449,-62666.611736
1525.108342,20873.807564,296.082377,-82278.656485
1525.110917,-25463.084405,-4145.153275,-85496.257577
1525.113491,39378.956114,36566.173535,-67416.403824
1525.116065,-27831.743419,-4737.318029,-89939.611465
1525.118640,5477.523971,13767.830521,-78448.178995
1525.121214,7846.182985,10510.924376,-78448.178995
1525.123789,-19689.478057,-14804.118840,-86568.791274
1525.126363,14211.954086,3404.947333,-74924.139704
1525.128937,-13175.665768,1924.535449,-75230.577904
1525.131512,4293.194464,10807.006753,-72472.634111
1525.134086,7254.018232,22798.343014,-67263.184724
1525.136660,-2220.617826,7550.100608,-72319.415011
1525.139235,-2960.823768,-5773.606348,-78448.178995
1525.141809,-4293.194464,13767.830521,-70327.566716
1525.144384,12435.459826,7105.977043,-77835.302597
1525.146958,1924.535449,15544.324782,-75690.235202
1525.149532,-296.082377,14508.036463,-71859.757712
1525.152107,-4589.276840,1036.288319,-75690.235202
1525.154681,1036.288319,7105.977043,-74004.825107
1525.157256,1776.494261,-5477.523971,-80746.465489
1525.159831,11547.212695,5181.441594,-78294.959896
1525.162405,-13471.748144,-3256.906145,-83351.190182
1525.164980,18505.148550,19393.395680,-71093.662214
1525.167555,-18653.189738,-8290.306550,-86722.010374
1525.170130,-31384.731941,-11103.089130,-76762.768900
1525.172705,30496.484810,14359.995275,-60521.544342
1525.175280,-33013.185013,-29164.114115,-86415.572174
1525.177855,9326.594869,3701.029710,-72932.291410
1525.180430,-3256.906145,-2960.823768,-75537.016103
1525.183005,-20133.601622,-3849.070898,-78754.617194
1525.185580,25611.125593,16432.571912,-75077.358804
1525.188155,-23834.631332,-3404.947333,-78294.959896
1525.190730,-2516.700203,-3404.947333,-74464.482406
1525.193305,-592.164754,3997.112087,-66497.089226
1525.195880,-6957.935855,-2220.617826,-72625.853210
1525.198455,2960.823768,9030.512492,-73238.729609
1525.201030,-5921.647536,13471.748144,-66803.527426
1525.203605,592.164754,2960.823768,-70787.224015
1525.206180,-13767.830521,-740.205942,-73085.510509
1525.208755,-5921.647536,2368.659014,-71246.881314
1525.211330,-8438.347739,-15396.283594,-81359.341888
1525.213904,-2516.700203,-5625.565159,-79673.931792
1525.216479,-4145.153275,-1628.453072,-82585.094684
1525.219054,-14211.954086,-2812.782580,-81665.780087
1525.221629,296.082377,13915.871710,-74311.263306
1525.224204,-5625.565159,-8438.347739,-77682.083497
1525.226779,-5329.482782,9474.636058,-66650.308326
1525.229354,1776.494261,-17024.736666,-78754.617194
1525.231929,-20577.725188,5625.565159,-68335.718422
1525.234504,32421.020260,22206.178260,-72012.976812
1525.237079,-35974.008781,-5181.441594,-82431.875585
1525.239654,38934.832549,44560.397708,-54086.342159
1525.242229,30644.525999,21317.931130,-68335.718422
1525.244804,-18653.189738,-6513.812290,-72166.195912
1525.247379,17320.819043,19245.354492,-57150.724151
1525.249954,-6513.812290,1924.535449,-62513.392637
1525.252529,-1628.453072,7698.141797,-70787.224015
1525.255104,7698.141797,13915.871710,-68488.937521
1525.257679,-8586.388927,12731.542202,-70787.224015
1525.260254,5921.647536,10658.965565,-78448.178995
1525.262829,-2960.823768,8586.388927,-71553.319513
1525.265404,-1924.535449,-3404.947333,-81512.560987
1525.267980,-1036.288319,7254.018232,-78141.740796
1525.270555,11103.089130,8586.388927,-75843.454302
1525.273130,-6365.771101,11103.089130,-75537.016103
1525.275706,-888.247130,9326.594869,-73085.510509
1525.278281,9030.512492,7105.977043,-74311.263306
1525.280856,-8438.347739,3108.864956,-75843.454302
1525.283432,17320.819043,6809.894666,-70634.004916
1525.286007,-15840.407159,6513.812290,-68948.594820
1525.288582,25611.125593,17912.983796,-64198.802732
1525.291158,-21614.013506,-6957.935855,-79061.055394
1525.293733,12583.501014,26203.290347,-60368.325242
1525.296308,-148.041188,-14359.995275,-87794.544071
1525.298884,-46484.933158,-7105.977043,-71553.319513
1525.301459,21169.889941,14804.118840,-60674.763442
1525.304034,-34937.720462,-11399.171507,-78907.836294
1525.306610,10955.047942,12139.377449,-69561.471218
1525.309185,4589.276840,7550.100608,-63739.145434
1525.311761,-25018.960840,4145.153275,-69255.033019
1525.314336,2220.617826,7254.018232,-68029.280222
1525.316911,1036.288319,-6365.771101,-72472.634111
1525.319487,-11103.089130,-11399.171507,-82125.437386
1525.322062,5033.400406,3849.070898,-78141.740796
1525.324637,-4293.194464,5329.482782,-75537.016103
1525.327213,-6365.771101,-6365.771101,-86722.010374
1525.329788,-4145.153275,5773.606348,-70327.566716
1525.332363,-16136.489536,-3552.988522,-71706.538613
1525.334939,-14359.995275,-8142.265362,-72166.195912
1525.337514,10214.842000,1332.370696,-69714.690318
1525.340089,-10214.842000,-740.205942,-76915.987999
1525.342665,-5181.441594,-592.164754,-74770.920605
1525.345240,-6513.812290,9918.759623,-74311.263306
1525.347815,-2072.576638,-3552.988522,-76456.330700
1525.350391,-9178.553681,2516.700203,-71706.538613
1525.352966,14508.036463,-8882.471304,-79980.369991
1525.355541,-28127.825796,-4737.318029,-79673.931792
1525.358117,37454.420665,30792.567187,-64505.240932
1525.360692,-32865.143825,-9622.677246,-81206.122788
1525.363267,14952.160028,31532.773129,-58529.696047
1525.365843,19097.313304,16580.613101,-71706.538613
1525.368419,-17764.942608,-4885.359217,-75690.235202
1525.370995,19245.354492,17764.942608,-59908.667944
1525.373571,-20725.766376,-3849.070898,-70787.224015
1525.376147,2220.617826,1332.370696,-80899.684589
1525.378723,3701.029710,8734.430116,-78294.959896
1525.381299,-10658.965565,1628.453072,-76915.987999
1525.383875,4885.359217,-3108.864956,-87947.763170
1525.386451,-6957.935855,12583.501014,-69867.909418
1525.389027,2664.741391,-2812.782580,-75690.235202
1525.391603,1628.453072,7698.141797,-75077.358804
1525.394179,6957.935855,13915.871710,-69408.252119
1525.396754,740.205942,7402.059420,-73698.386908
1525.399330,1036.288319,17320.819043,-67569.622924
1525.401906,7698.141797,14063.912898,-67263.184724
1525.404482,-6661.853478,2960.823768,-74924.139704
1525.407058,21910.095883,11399.171507,-73391.948708
1525.409634,-16876.695478,-7846.182985,-81972.218286
1525.412210,17024.736666,22650.301825,-68182.499322
1525.414786,-10510.924376,-13471.748144,-91778.240660
1525.417362,-30052.361245,-20429.683999,-82738.313784
1525.419938,32865.143825,22354.219448,-55158.875856
1525.422514,-20725.766376,-29016.072926,-84423.723880
1525.425090,-9326.594869,1628.453072,-75383.797003
1525.427666,14656.077652,4293.194464,-78601.398095
1525.430242,-34197.514520,-12435.459826,-89173.515967
1525.432817,22354.219448,14063.912898,-78448.178995
1525.435393,-12879.583391,-12731.542202,-83810.847481
1525.437969,-14804.118840,-8586.388927,-80133.589091
1525.440545,7698.141797,1036.288319,-73698.386908
1525.443121,-8142.265362,-888.247130,-77069.207099
1525.445697,-2368.659014,5033.400406,-75690.235202
1525.448273,-2960.823768,9178.553681,-61287.639840
1525.450849,-3256.906145,-2368.659014,-71859.757712
1525.453425,-20281.642811,-6809.894666,-83197.971083
1525.456001,-3701.029710,-7550.100608,-76456.330700
1525.458577,-5625.565159,-12731.542202,-82585.094684
1525.461153,-11399.171507,-6513.812290,-85802.695776
1525.463729,-7105.977043,-740.205942,-80286.808190
1525.466305,-14804.118840,9918.759623,-75230.577904
1525.468880,1924.535449,-4441.235652,-76609.549800
1525.471456,-10658.965565,7254.018232,-68335.718422
1525.474032,7254.018232,-11843.295072,-76915.987999
1525.476608,-17024.736666,3997.112087,-72166.195912
1525.479183,29904.320057,26795.455100,-67109.965625
1525.481759,-34049.473332,-10658.965565,-83810.847481
1525.484335,23686.590144,39230.914926,-58070.038748
1525.486911,7105.977043,11695.253884,-73391.948708
1525.489486,-18209.066173,5921.647536,-74158.044206
1525.492062,9178.553681,13175.665768,-62513.392637
1525.494638,-3108.864956,2960.823768,-68182.499322
1525.497214,-6957.935855,2516.700203,-77835.302597
1525.499789,4293.194464,9474.636058,-76915.987999
1525.502365,-3849.070898,9622.677246,-77835.302597
1525.504941,740.205942,6217.729913,-86875.229473
1525.507517,-3404.947333,6365.771101,-78907.836294
1525.510093,-1628.453072,444.123565,-78141.740796
1525.512668,2072.576638,10214.842000,-73391.948708
1525.515244,-888.247130,7105.977043,-70634.004916
1525.517820,1332.370696,12583.501014,-69101.813920
1525.520396,2664.741391,17024.736666,-67263.184724
1525.522971,3849.070898,16136.489536,-67569.622924
1525.525547,592.164754,6809.894666,-72625.853210
1525.528123,13175.665768,12731.542202,-74311.263306
1525.530699,6513.812290,6809.894666,-72012.976812
1525.533274,-23390.507767,6069.688724,-69408.252119
1525.535850,29312.155303,17616.901420,-65118.117330
1525.538426,-37898.544230,-29164.114115,-93003.993457
1525.541002,-1184.329507,7698.141797,-70787.224015
1525.543577,4441.235652,-3701.029710,-80286.808190
1525.546153,-36862.255912,-5477.523971,-84883.381178
1525.548729,18061.024985,8438.347739,-78907.836294
1525.551305,-26647.413912,-6809.894666,-86262.353075
1525.553880,2516.700203,4293.194464,-85496.257577
1525.556456,-1776.494261,-592.164754,-78448.178995
1525.559032,-23390.507767,-9474.636058,-79061.055394
1525.561608,-740.205942,-740.205942,-73698.386908
1525.564183,-11547.212695,9030.512492,-70787.224015
1525.566759,5329.482782,6957.935855,-77528.864398
1525.569335,-3997.112087,-4589.276840,-83351.190182
1525.571911,-9474.636058,8290.306550,-66956.746525
1525.574487,-12583.501014,-7698.141797,-74464.482406
1525.577062,-12139.377449,-8290.306550,-75383.797003
1525.579638,4589.276840,-1628.453072,-78448.178995
1525.582214,-8734.430116,1628.453072,-75537.016103
1525.584790,-6217.729913,7402.059420,-74770.920605
1525.587365,-15988.448347,-444.123565,-80286.808190
1525.589941,3256.906145,6069.688724,-76762.768900
1525.592517,-26943.496289,-9918.759623,-84730.162079
1525.595093,20725.766376,11695.253884,-72625.853210
1525.597668,-28868.031738,-10362.883188,-78754.617194
1525.600244,-20133.601622,4145.153275,-77988.521696
1525.602820,33457.308578,28423.908173,-69408.252119
1525.605396,-19985.560434,-2960.823768,-87181.667672
1525.607971,17616.901420,19393.395680,-71706.538613
1525.610547,-1036.288319,1036.288319,-85343.038477
1525.613123,-18209.066173,-10510.924376,-89939.611465
1525.615699,9178.553681,4293.194464,-76149.892501
1525.618275,-20133.601622,-2812.782580,-74464.482406
1525.620850,12731.542202,8882.471304,-76303.111601
1525.623426,-2960.823768,13471.748144,-76915.987999
1525.626002,5477.523971,6809.894666,-77375.645298
1525.628578,1628.453072,5033.400406,-74617.701505
1525.631153,-8438.347739,9178.553681,-69561.471218
1525.633729,444.123565,2220.617826,-82585.094684
1525.636305,2664.741391,9622.677246,-74770.920605
1525.638881,-1184.329507,7105.977043,-77069.207099
1525.641456,4589.276840,10362.883188,-76762.768900
1525.644032,-1036.288319,8586.388927,-73851.606007
1525.646608,8290.306550,8734.430116,-78601.398095
1525.649184,-5181.441594,-6513.812290,-85649.476676
1525.651759,-9474.636058,18505.148550,-70327.566716
1525.654335,11251.130318,-3997.112087,-84423.723880
1525.656910,-40711.326810,-14952.160028,-81665.780087
1525.659485,30940.608376,14804.118840,-63432.707234
1525.662060,-30348.443622,-27683.702231,-86568.791274
1525.664636,6069.688724,5921.647536,-72932.291410
1525.667211,6513.812290,0.000000,-78754.617194
1525.669786,-29312.155303,-6365.771101,-74464.482406
1525.672361,4293.194464,2960.823768,-85343.038477
1525.674937,-5773.606348,-5033.400406,-81665.780087
1525.677512,-18505.148550,-8882.471304,-77222.426198
1525.680087,1332.370696,-148.041188,-70021.128517
1525.682662,-9918.759623,11843.295072,-63739.145434
1525.685237,1036.288319,740.205942,-75996.673402
1525.687813,1332.370696,9178.553681,-66956.746525
1525.690388,-3701.029710,888.247130,-72779.072310
1525.692963,-15692.365970,-6365.771101,-78294.959896
1525.695538,-8290.306550,-8290.306550,-77988.521696
1525.698114,592.164754,-5773.606348,-81972.218286
1525.700689,-6513.812290,-3404.947333,-80593.246390
1525.703264,-3849.070898,2664.741391,-76762.768900
1525.705839,-13767.830521,444.123565,-81206.122788
1525.708415,9030.512492,11103.089130,-72472.634111
1525.710990,-27535.661042,-17764.942608,-82891.532884
1525.713565,13323.706956,14656.077652,-64198.802732
1525.716140,6957.935855,-6365.771101,-83197.971083
1525.718716,-17912.983796,6661.853478,-73545.167808
1525.721291,34641.638086,29460.196492,-67722.842023
1525.723866,-24130.713709,-5033.400406,-90858.926063
1525.726441,21762.054695,17616.901420,-74924.139704
1525.729016,-1628.453072,2664.741391,-82891.532884
1525.731592,-19837.519246,-13915.871710,-92850.774358
1525.734167,10955.047942,4441.235652,-77682.083497
1525.736742,-20429.683999,-2812.782580,-75230.577904
1525.739317,9918.759623,5477.523971,-82125.437386
1525.741893,5773.606348,14804.118840,-76762.768900
1525.744468,-3849.070898,7550.100608,-73391.948708
1525.747043,6365.771101,-2220.617826,-83964.066581
1525.749618,-5773.606348,10955.047942,-76762.768900
1525.752194,1036.288319,3108.864956,-79980.369991
1525.754769,740.205942,5329.482782,-79520.712692
1525.757343,3701.029710,6661.853478,-80286.808190
1525.759918,-740.205942,10955.047942,-75230.577904
1525.762492,3997.112087,11547.212695,-69408.252119
1525.765067,-5477.523971,11843.295072,-68488.937521
1525.767641,13471.748144,8290.306550,-71706.538613
1525.770215,-25315.043216,1924.535449,-72472.634111
1525.772790,26943.496289,17912.983796,-65271.336430
1525.775364,-34937.720462,-27387.619854,-92237.897959
1525.777939,-37602.461854,-8734.430116,-75996.673402
1525.780513,24574.837274,20873.807564,-56231.409553
1525.783088,-29904.320057,-3997.112087,-72625.853210
1525.785662,6957.935855,6069.688724,-70327.566716
1525.788236,-1480.411884,8142.265362,-70787.224015
1525.790811,-18357.107362,3256.906145,-75537.016103
1525.793385,8438.347739,-1036.288319,-75690.235202
1525.795960,-22058.137072,-11695.253884,-80899.684589
1525.798534,0.000000,-9178.553681,-86262.353075
1525.801109,-10510.924376,5773.606348,-78294.959896
1525.803683,-1332.370696,-3404.947333,-83964.066581
1525.806258,-9030.512492,-4885.359217,-82278.656485
1525.808832,-8586.388927,7550.100608,-68488.937521
1525.811406,-15988.448347,-11991.336260,-78601.398095
1525.813981,-4145.153275,-2516.700203,-72779.072310
1525.816555,-888.247130,5625.565159,-69867.909418
1525.819130,3256.906145,-888.247130,-74464.482406
1525.821704,-15396.283594,6513.812290,-73851.606007
1525.824279,10362.883188,3997.112087,-76762.768900
1525.826853,-26055.249158,-2516.700203,-77375.645298
1525.829428,23094.425390,888.247130,-81512.560987
1525.832002,-34049.473332,-16432.571912,-90092.830565
1525.834576,31236.690752,31384.731941,-64198.802732
1525.837151,-7846.182985,-10510.924376,-88254.201370
1525.839725,-12139.377449,14211.954086,-68795.375720
1525.842300,32421.020260,25315.043216,-66497.089226
1525.844874,-17764.942608,-6513.812290,-74158.044206
1525.847449,11991.336260,15396.283594,-60061.887043
1525.850023,16432.571912,13619.789333,-75077.358804
1525.852598,-18653.189738,-6069.688724,-74617.701505
1525.855172,12879.583391,7254.018232,-74004.825107
1525.857746,6809.894666,18949.272115,-66803.527426
1525.860320,9918.759623,4737.318029,-77069.207099
1525.862894,444.123565,9030.512492,-69101.813920
1525.865468,1036.288319,7550.100608,-66650.308326
1525.868042,-4737.318029,10362.883188,-76456.330700
1525.870616,6957.935855,5477.523971,-77069.207099
1525.873190,7550.100608,6513.812290,-79061.055394
1525.875764,-148.041188,16580.613101,-72932.291410
1525.878338,5329.482782,6957.935855,-73391.948708
1525.880912,-11695.253884,6069.688724,-73851.606007
1525.883486,21762.054695,13323.706956,-68642.156621
1525.886060,-18357.107362,-14359.995275,-83197.971083
1525.888634,8882.471304,6661.853478,-72625.853210
1525.891208,16876.695478,13619.789333,-68795.375720
1525.893782,-37158.338288,-24722.878463,-84883.381178
1525.896356,22502.260637,14211.954086,-59295.791545
1525.898930,-6217.729913,-4293.194464,-71246.881314
1525.901504,-16284.530724,444.123565,-72625.853210
1525.904078,10066.800811,15988.448347,-66497.089226
1525.906652,-19245.354492,7402.059420,-66190.651027
1525.909226,2960.823768,2812.782580,-71400.100414
1525.911800,-3849.070898,-4293.194464,-74464.482406
1525.914374,-11991.336260,-1480.411884,-76762.768900
1525.916948,-3997.112087,7994.224174,-78754.617194
1525.919522,-2812.782580,6365.771101,-73085.510509
1525.922096,-12583.501014,-2220.617826,-79827.150892
1525.924670,-10066.800811,-2960.823768,-71706.538613
1525.927244,-7550.100608,-5477.523971,-72779.072310
1525.929818,-6661.853478,-1480.411884,-74004.825107
1525.932392,-3701.029710,-6069.688724,-75537.016103
1525.934966,-2368.659014,9918.759623,-74004.825107
1525.937540,-9178.553681,888.247130,-75843.454302
1525.940114,592.164754,13175.665768,-66956.746525
1525.942688,-16580.613101,-14359.995275,-77835.302597
1525.945262,4145.153275,13767.830521,-60981.201641
1525.947836,20281.642811,1924.535449,-78448.178995
1525.950410,-24426.796086,1628.453072,-79214.274493
1525.952984,38490.708984,36862.255912,-64045.583633
1525.955558,-25907.207970,-148.041188,-86262.353075
1525.958132,13767.830521,13471.748144,-77069.207099
1525.960706,5773.606348,8734.430116,-63126.269035
1525.963280,-12583.501014,-1480.411884,-75230.577904
1525.965853,0.000000,1628.453072,-77988.521696
1525.968427,-1480.411884,8882.471304,-70021.128517
1525.971001,-1036.288319,4737.318029,-73698.386908
1525.973574,8586.388927,10066.800811,-76303.111601
1525.976148,-2664.741391,5921.647536,-74004.825107
1525.978721,5477.523971,2516.700203,-79367.493593
1525.981295,-6513.812290,13175.665768,-72625.853210
1525.983869,1036.288319,2072.576638,-77069.207099
1525.986442,2368.659014,10214.842000,-74924.139704
1525.989016,6809.894666,15840.407159,-73851.606007
1525.991589,-1184.329507,7994.224174,-75843.454302
1525.994163,3701.029710,19985.560434,-71706.538613
1525.996737,10955.047942,3256.906145,-74617.701505
1525.999310,-18949.272115,0.000000,-67876.061123
1526.001884,29608.237680,18801.230927,-61747.297139
1526.004457,-40267.203245,-30644.525999,-91625.021561
1526.007031,1332.370696,9918.759623,-68488.937521
1526.009604,3997.112087,-6809.894666,-85036.600278
1526.012178,-24870.919651,-4589.276840,-82738.313784
1526.014752,15100.201217,12435.459826,-75383.797003
1526.017325,-24278.754898,-13027.624579,-86722.010374
1526.019899,-1924.535449,592.164754,-85649.476676
1526.022472,-7105.977043,-2960.823768,-82585.094684
1526.025046,-18801.230927,-8438.347739,-77069.207099
1526.027620,-6069.688724,444.123565,-73238.729609
1526.030193,-4441.235652,10362.883188,-69561.471218
1526.032767,-2960.823768,-6661.853478,-86722.010374
1526.035340,-11399.171507,-1480.411884,-80746.465489
1526.037914,-6365.771101,-3849.070898,-74004.825107
1526.040488,-12139.377449,-7994.224174,-79520.712692
1526.043061,-2072.576638,1036.288319,-74158.044206
1526.045635,-14211.954086,-7698.141797,-75996.673402
1526.048208,3108.864956,11399.171507,-71093.662214
1526.050782,-14508.036463,148.041188,-75077.358804
1526.053356,296.082377,14804.118840,-68642.156621
1526.055929,-21021.848753,-6217.729913,-76609.549800
1526.058503,18061.024985,15100.201217,-66956.746525
1526.061076,-6957.935855,-10510.924376,-82585.094684
1526.063650,-8142.265362,11695.253884,-69255.033019
1526.066194,25759.166782,18801.230927,-63585.926334
1526.068738,-24426.796086,3256.906145,-83657.628382
1526.071282,8882.471304,12879.583391,-75230.577904
1526.073826,4885.359217,9178.553681,-79367.493593
1526.076370,-14211.954086,-14211.954086,-90246.049664
1526.078914,5625.565159,888.247130,-81359.341888
1526.081458,-12435.459826,-1036.288319,-78141.740796
1526.084002,-148.041188,2664.741391,-79980.369991
1526.086546,5181.441594,9918.759623,-79214.274493
1526.089090,-8882.471304,4145.153275,-77375.645298
1526.091633,3701.029710,4293.194464,-81665.780087
1526.094177,-5773.606348,11991.336260,-76303.111601
1526.096721,1036.288319,740.205942,-79673.931792
1526.099265,740.205942,10658.965565,-74924.139704
1526.101809,4293.194464,11399.171507,-76762.768900
1526.104353,2812.782580,6809.894666,-77988.521696
1526.106897,-10510.924376,14804.118840,-72625.853210
1526.109441,15692.365970,4589.276840,-75230.577904
1526.111985,-22946.384202,-8142.265362,-75537.016103
1526.114529,25463.084405,23242.466579,-60215.106143
1526.117073,-25167.002028,-23242.466579,-89020.296868
1526.119617,-24722.878463,4589.276840,-71706.538613
1526.122161,15988.448347,5773.606348,-74770.920605
1526.124705,-33753.390955,-1480.411884,-75996.673402
1526.127249,14359.995275,11695.253884,-72779.072310
1526.129793,-12287.418637,-5181.441594,-79827.150892
1526.132337,-8734.430116,0.000000,-84730.162079
1526.134881,-1776.494261,-4293.194464,-81359.341888
1526.137425,-21169.889941,-7105.977043,-76149.892501
1526.139969,-5181.441594,-2664.741391,-80286.808190
1526.142512,-5625.565159,3849.070898,-78907.836294
1526.145056,-13471.748144,-3108.864956,-82585.094684
1526.147600,-8290.306550,-2072.576638,-82125.437386
1526.150144,-5181.441594,-2516.700203,-72012.976812
1526.152688,-10955.047942,-4885.359217,-75230.577904
1526.155232,296.082377,148.041188,-70174.347617
1526.157776,-13471.748144,-7105.977043,-74770.920605
1526.160320,-3849.070898,9326.594869,-72319.415011
1526.162864,4441.235652,2664.741391,-73391.948708
1526.165408,-16876.695478,6513.812290,-71246.881314
1526.167957,9770.718434,-10807.006753,-80593.246390
1526.170505,-19837.519246,2220.617826,-76915.987999
1526.173054,31532.773129,19985.560434,-74311.263306
1526.175603,-7550.100608,-9622.677246,-83810.847481
1526.178152,-11991.336260,20725.766376,-66497.089226
1526.180700,26055.249158,22206.178260,-65577.774629
1526.183249,-17024.736666,-1036.288319,-70327.566716
1526.185798,13915.871710,16136.489536,-61594.078039
1526.188347,5625.565159,5033.400406,-69255.033019
1526.190895,-11843.295072,592.164754,-80746.465489
1526.193444,-592.164754,8142.265362,-74770.920605
1526.195993,296.082377,8586.388927,-75077.358804
1526.198541,8438.347739,1332.370696,-83964.066581
1526.201090,4293.194464,6069.688724,-73851.606007
1526.203639,-740.205942,5921.647536,-74311.263306
1526.206188,-296.082377,9622.677246,-73085.510509
1526.208736,6365.771101,14063.912898,-72779.072310
1526.211285,2664.741391,12731.542202,-72932.291410
1526.213834,2960.823768,8586.388927,-74311.263306
1526.216382,9178.553681,20281.642811,-72932.291410
1526.218931,-10510.924376,-5329.482782,-84270.504780
1526.221480,-4145.153275,13767.830521,-68795.375720
1526.224029,12879.583391,1628.453072,-78141.740796
1526.226577,-38786.791361,-21317.931130,-84576.942979
1526.229126,23982.672521,17616.901420,-63892.364533
1526.231675,-27387.619854,-26499.372724,-89786.392366
1526.234223,4589.276840,-2664.741391,-80746.465489
1526.236772,8586.388927,3404.947333,-79827.150892
1526.239321,-29608.237680,-11991.336260,-86262.353075
1526.241870,13915.871710,6957.935855,-80746.465489
1526.244418,-14359.995275,-148.041188,-74617.701505
1526.246967,0.000000,-5181.441594,-78907.836294
1526.249516,-1332.370696,-3997.112087,-78907.836294
1526.252064,-10362.883188,12435.459826,-66190.651027
1526.254613,296.082377,-3849.070898,-78754.617194
1526.257162,-13619.789333,2368.659014,-73085.510509
1526.259711,740.205942,-3404.947333,-74770.920605
1526.262259,-8290.306550,-1036.288319,-74924.139704
1526.264808,-8586.388927,1924.535449,-73238.729609
1526.267357,-14211.954086,-12139.377449,-77375.645298
1526.269910,0.000000,12287.418637,-70174.347617
1526.272462,-1776.494261,-2368.659014,-75843.454302
1526.275015,-6513.812290,13323.706956,-64964.898230
1526.277568,148.041188,-7698.141797,-76303.111601
1526.280121,-8882.471304,6365.771101,-70174.347617
1526.282674,33605.349767,29460.196492,-63432.707234
1526.285227,-25018.960840,-12583.501014,-87181.667672
1526.287780,1480.411884,27683.702231,-64352.021832
1526.290333,16136.489536,20725.766376,-70480.785816
1526.292885,-21910.095883,-592.164754,-70787.224015
1526.295438,20577.725188,19245.354492,-58836.134246
1526.297991,19689.478057,18061.024985,-66037.431928
1526.300544,-8882.471304,-3108.864956,-76303.111601
1526.303097,-2960.823768,6365.771101,-73698.386908
1526.305650,888.247130,9918.759623,-72012.976812
1526.308203,9030.512492,-2664.741391,-83657.628382
1526.310755,1628.453072,8586.388927,-75690.235202
1526.313308,-148.041188,4293.194464,-75537.016103
1526.315861,-3701.029710,8882.471304,-77988.521696
1526.318414,6957.935855,14656.077652,-77835.302597
1526.320967,2368.659014,4293.194464,-79827.150892
1526.323520,2664.741391,9030.512492,-75077.358804
1526.326073,-2368.659014,10955.047942,-72319.415011
1526.328625,16580.613101,7994.224174,-73698.386908
1526.331178,-21169.889941,-7994.224174,-76456.330700
1526.333731,17172.777854,20577.725188,-58223.257848
1526.336284,-18357.107362,-12139.377449,-79827.150892
1526.338837,-26795.455100,-1480.411884,-73391.948708
1526.341390,16284.530724,14656.077652,-66343.870127
1526.343943,-31088.649564,-5329.482782,-76762.768900
1526.346495,10362.883188,6513.812290,-71553.319513
1526.349048,-11399.171507,1184.329507,-73545.167808
1526.351601,-11843.295072,-2516.700203,-66190.651027
1526.354154,7994.224174,3701.029710,-70787.224015
1526.356707,-10066.800811,-3108.864956,-75230.577904
1526.359260,148.041188,-4589.276840,-83351.190182
1526.361813,-5773.606348,3701.029710,-82125.437386
1526.364365,-20133.601622,-148.041188,-75077.358804
1526.366918,-3997.112087,-7105.977043,-78754.617194
1526.369471,-6217.729913,-2368.659014,-76149.892501
1526.372028,-5033.400406,-6365.771101,-79827.150892
1526.374584,-16876.695478,-5921.647536,-75230.577904
1526.377141,148.041188,6661.853478,-69714.690318
1526.379698,-13175.665768,-3256.906145,-75383.797003
1526.382254,8882.471304,18505.148550,-68029.280222
1526.384811,-26351.331535,-9770.718434,-81206.122788
1526.387368,15692.365970,25759.166782,-61134.420740
1526.389924,28868.031738,11251.130318,-74004.825107
1526.392481,-26499.372724,-5921.647536,-80746.465489
1526.395037,40119.162056,37750.503042,-60368.325242
1526.397594,-17764.942608,-148.041188,-85955.914876
1526.400151,-5625.565159,9918.759623,-81818.999186
1526.402707,15248.242405,14359.995275,-80746.465489
1526.405264,-11547.212695,-17764.942608,-92084.678860
1526.407821,0.000000,-2072.576638,-78907.836294
1526.410377,-8290.306550,5329.482782,-74004.825107
1526.412934,888.247130,1184.329507,-85343.038477
1526.415491,888.247130,12139.377449,-75077.358804
1526.418047,444.123565,4589.276840,-70634.004916
1526.420604,1036.288319,3849.070898,-77222.426198
1526.423160,2960.823768,16136.489536,-71553.319513
1526.425717,11695.253884,10214.842000,-73545.167808
1526.428274,-10214.842000,9326.594869,-77222.426198
1526.430830,13767.830521,15840.407159,-73391.948708
1526.433387,-888.247130,15840.407159,-73698.386908
1526.435944,-148.041188,2072.576638,-78448.178995
1526.438500,-14952.160028,7254.018232,-68335.718422
1526.441057,20873.807564,8142.265362,-71246.881314
1526.443613,-38934.832549,-27683.702231,-90552.487864
1526.446170,14804.118840,11547.212695,-71093.662214
1526.448727,-12139.377449,-15248.242405,-88560.639569
1526.451283,-9474.636058,-7698.141797,-84883.381178
1526.453840,7550.100608,6069.688724,-78294.959896
1526.456397,-22502.260637,-13323.706956,-85802.695776
1526.458953,-13471.748144,-5921.647536,-86415.572174
1526.461510,1184.329507,2516.700203,-79214.274493
1526.464066,-18209.066173,-4293.194464,-79061.055394
1526.466623,-2368.659014,-3552.988522,-81512.560987
1526.469180,-10807.006753,7402.059420,-73238.729609
1526.471736,-2072.576638,-2072.576638,-77375.645298
1526.474300,-11251.130318,-2516.700203,-77222.426198
1526.476859,-1184.329507,-888.247130,-73085.510509
1526.479418,-5625.565159,-1036.288319,-75383.797003
1526.481978,-19837.519246,-7105.977043,-74464.482406
1526.484537,3256.906145,-296.082377,-72932.291410
1526.487096,-18949.272115,296.082377,-78141.740796
1526.489655,12435.459826,9474.636058,-76762.768900
1526.492214,-30052.361245,-6069.688724,-82278.656485
1526.494773,1184.329507,19541.436869,-62053.735338
1526.497332,20281.642811,-740.205942,-80440.027290
1526.499891,-26499.372724,-1924.535449,-79980.369991
1526.502451,37898.544230,31680.814318,-69714.690318
1526.505010,-21021.848753,-6513.812290,-94689.403553
1526.507569,-2960.823768,12583.501014,-80440.027290
1526.510128,13027.624579,7994.224174,-78448.178995
1526.512687,-16432.571912,-12731.542202,-86109.133975
1526.515246,8142.265362,7402.059420,-70940.443115
1526.517805,-4293.194464,7698.141797,-70174.347617
1526.520364,-592.164754,3997.112087,-82125.437386
1526.522923,2220.617826,8142.265362,-72319.415011
1526.525483,-888.247130,7402.059420,-68948.594820
1526.528042,3256.906145,-888.247130,-82278.656485
1526.530601,4441.235652,13471.748144,-73238.729609
1526.533160,4441.235652,16728.654289,-74464.482406
1526.535719,-6957.935855,6513.812290,-81972.218286
1526.538278,10658.965565,11103.089130,-74770.920605
1526.540837,-10066.800811,13323.706956,-70634.004916
1526.543396,17172.777854,6069.688724,-71093.662214
1526.545956,-25611.125593,-4737.318029,-73545.167808
1526.548515,23094.425390,20429.683999,-61900.516238
1526.551074,-24426.796086,-21762.054695,-88713.858668
1526.553633,-24870.919651,1332.370696,-74004.825107
1526.556192,18209.066173,8734.430116,-70634.004916
1526.558751,-32421.020260,-6513.812290,-83197.971083
1526.561310,13175.665768,10066.800811,-74311.263306
1526.563869,-11399.171507,-2664.741391,-78601.398095
1526.566429,-22058.137072,4145.153275,-70021.128517
1526.568988,8586.388927,3997.112087,-72932.291410
1526.571547,-14359.995275,-444.123565,-72472.634111
1526.574106,-3701.029710,1332.370696,-79061.055394
1526.576667,-5625.565159,0.000000,-79520.712692
1526.579229,-18949.272115,-1776.494261,-76456.330700
1526.581791,-148.041188,-2664.741391,-78754.617194
1526.584352,-7846.182985,-2960.823768,-78141.740796
1526.586914,-9326.594869,-4885.359217,-80133.589091
1526.589475,-8438.347739,-12435.459826,-79214.274493
1526.592037,-13915.871710,148.041188,-77069.207099
1526.594598,5181.441594,-4737.318029,-80593.246390
1526.597160,-10955.047942,10214.842000,-72012.976812
1526.599721,-2072.576638,-9770.718434,-81512.560987
1526.602283,-26055.249158,-6661.853478,-82891.532884
1526.604844,29312.155303,27979.784608,-63585.926334
1526.607406,-17320.819043,-10362.883188,-85189.819378
1526.609968,-1628.453072,22650.301825,-63126.269035
1526.612529,20133.601622,25463.084405,-62666.611736
1526.615091,-21021.848753,592.164754,-65884.212828
1526.617652,20133.601622,19541.436869,-57150.724151
1526.620214,2812.782580,9770.718434,-70021.128517
1526.622775,-8734.430116,2368.659014,-84423.723880
1526.625337,-740.205942,12435.459826,-74770.920605
1526.627898,-6957.935855,7254.018232,-71706.538613
1526.630460,2072.576638,-2960.823768,-81972.218286
1526.633021,7550.100608,9622.677246,-73698.386908
1526.635583,5329.482782,7550.100608,-77222.426198
1526.638145,-2368.659014,11399.171507,-75996.673402
1526.640706,4293.194464,18505.148550,-75230.577904
1526.643268,3256.906145,5477.523971,-77988.521696
1526.645829,5625.565159,18061.024985,-72319.415011
1526.648391,-888.247130,-6069.688724,-81359.341888
1526.650952,-14804.118840,14063.912898,-69101.813920
1526.653514,20725.766376,4441.235652,-76762.768900
1526.656075,-40119.162056,-22354.219448,-81665.780087
1526.658637,20725.766376,19541.436869,-55005.656756
1526.661198,-17616.901420,-23242.466579,-82738.313784
1526.663760,-4145.153275,3997.112087,-74004.825107
1526.666321,17320.819043,8882.471304,-73851.606007
1526.668883,-34197.514520,-10955.047942,-81818.999186
1526.671445,7254.018232,7550.100608,-75077.358804
1526.674006,4589.276840,2368.659014,-76149.892501
1526.676568,-13471.748144,-1332.370696,-73391.948708
1526.679130,3108.864956,2664.741391,-74770.920605
1526.681693,-9474.636058,3997.112087,-70940.443115
1526.684256,-14508.036463,-2072.576638,-79673.931792
1526.686819,-3108.864956,-1480.411884,-75996.673402
1526.689382,-7550.100608,-3849.070898,-77528.864398
1526.691944,-7994.224174,-3404.947333,-79980.369991
1526.694507,-14211.954086,-11547.212695,-78907.836294
1526.697070,-8586.388927,-1184.329507,-79214.274493
1526.699633,-4441.235652,-4441.235652,-78294.959896
1526.702195,-2220.617826,12435.459826,-69408.252119
1526.704758,-7402.059420,-8290.306550,-79827.150892
1526.707321,-21762.054695,-4589.276840,-82891.532884
1526.709884,31088.649564,26943.496289,-68335.718422
1526.712447,-28423.908173,-12879.583391,-87334.886772
1526.715009,-13471.748144,2812.782580,-76762.768900
1526.717572,22946.384202,23982.672521,-67569.622924
1526.720135,-15248.242405,-4293.194464,-77069.207099
1526.722698,6957.935855,8882.471304,-69561.471218
1526.725261,17172.777854,18949.272115,-63126.269035
1526.727823,-7550.100608,0.000000,-71706.538613
1526.730386,-3552.988522,5773.606348,-71093.662214
1526.732949,2220.617826,15988.448347,-64505.240932
1526.735512,3256.906145,-4145.153275,-82278.656485
1526.738074,-8734.430116,14359.995275,-68795.375720
1526.740637,15692.365970,18357.107362,-61900.516238
1526.743200,-2516.700203,12435.459826,-70634.004916
1526.745763,-6069.688724,8438.347739,-74924.139704
1526.748326,14656.077652,15100.201217,-66803.527426
1526.750888,-10066.800811,12731.542202,-69408.252119
1526.753451,24278.754898,11103.089130,-71553.319513
1526.756014,-20725.766376,-8438.347739,-77069.207099
1526.758577,19245.354492,22206.178260,-62973.049936
1526.761139,-17764.942608,-25167.002028,-91471.802461
1526.763702,-33457.308578,-3701.029710,-76456.330700
1526.766265,19541.436869,10658.965565,-72779.072310
1526.768828,-31236.690752,-9030.512492,-82738.313784
1526.771391,7550.100608,10214.842000,-73085.510509
1526.773953,-4885.359217,-2220.617826,-75690.235202
1526.776516,-22502.260637,-3701.029710,-81052.903688
1526.779079,8438.347739,5477.523971,-74158.044206
1526.781643,-9178.553681,592.164754,-76149.892501
1526.784207,-3997.112087,-2516.700203,-80746.465489
1526.786771,-3701.029710,2812.782580,-76762.768900
1526.789335,-15692.365970,-2664.741391,-73851.606007
1526.791899,-2960.823768,-2516.700203,-79827.150892
1526.794463,740.205942,-296.082377,-78448.178995
1526.797027,-21465.972318,-8882.471304,-76303.111601
1526.799591,444.123565,2368.659014,-68642.156621
1526.802156,-17912.983796,-5477.523971,-78141.740796
1526.804720,11399.171507,7994.224174,-76149.892501
1526.807284,-25611.125593,-5033.400406,-81818.999186
1526.809848,13175.665768,17912.983796,-71246.881314
1526.812412,-13471.748144,-14804.118840,-86262.353075
1526.814976,-22058.137072,-2812.782580,-82738.313784
1526.817540,31680.814318,25018.960840,-72625.853210
1526.820104,-17616.901420,-7105.977043,-91471.802461
1526.822668,-2960.823768,10510.924376,-84117.285680
1526.825232,11695.253884,6661.853478,-83197.971083
1526.827796,-13767.830521,-11103.089130,-87641.324971
1526.830360,6217.729913,11399.171507,-66650.308326
1526.832924,2516.700203,11251.130318,-64352.021832
1526.835489,-5181.441594,1924.535449,-78141.740796
1526.838053,1332.370696,13027.624579,-67109.965625
1526.840617,11399.171507,11399.171507,-66956.746525
1526.843181,-2516.700203,1036.288319,-81665.780087
1526.845745,10510.924376,13915.871710,-73851.606007
1526.848309,1332.370696,12583.501014,-78141.740796
1526.850873,-5625.565159,4885.359217,-80286.808190
1526.853437,14952.160028,11547.212695,-79980.369991
1526.856001,-7994.224174,-4293.194464,-85649.476676
1526.858565,-5329.482782,18357.107362,-70174.347617
1526.861129,9474.636058,3701.029710,-74924.139704
1526.863695,-42783.903448,-13027.624579,-72932.291410
1526.866260,27387.619854,15100.201217,-57150.724151
1526.868825,-31088.649564,-24574.837274,-85036.600278
1526.871391,10214.842000,3404.947333,-75383.797003
1526.873956,6513.812290,7846.182985,-73545.167808
1526.876522,-31828.855506,-8290.306550,-76456.330700
1526.879087,12139.377449,7994.224174,-69561.471218
1526.881652,-11103.089130,-2516.700203,-74004.825107
1526.884218,-10066.800811,-740.205942,-74158.044206
1526.886783,6069.688724,3404.947333,-72166.195912
1526.889348,-16580.613101,10658.965565,-65730.993728
1526.891914,-4145.153275,-6069.688724,-76762.768900
1526.894479,-9474.636058,2664.741391,-68642.156621
1526.897045,-3108.864956,-4441.235652,-76609.549800
1526.899610,-10362.883188,-5329.482782,-79061.055394
1526.902175,-2072.576638,-3256.906145,-78141.740796
1526.904741,-11547.212695,-7550.100608,-82278.656485
1526.907306,5625.565159,-1184.329507,-79673.931792
1526.909872,-18505.148550,-1924.535449,-82125.437386
1526.912437,17468.860231,7846.182985,-78601.398095
1526.915002,-32124.937883,-6809.894666,-86109.133975
1526.917568,35085.761651,27979.784608,-61900.516238
1526.920133,-8586.388927,-3256.906145,-76456.330700
1526.922698,-20725.766376,-6217.729913,-90246.049664
1526.925264,17616.901420,18949.272115,-69408.252119
1526.927829,-3701.029710,-3701.029710,-80593.246390
1526.930395,-7550.100608,-1036.288319,-84117.285680
1526.932960,25167.002028,24130.713709,-65118.117330
1526.935525,-5921.647536,6069.688724,-65424.555529
1526.938091,1036.288319,-2516.700203,-71400.100414
1526.940656,3256.906145,19541.436869,-59449.010645
1526.943221,10066.800811,2664.741391,-74311.263306
1526.945787,-4737.318029,8290.306550,-71553.319513
1526.948352,10066.800811,19541.436869,-64811.679131
1526.950918,4885.359217,10510.924376,-76762.768900
1526.953483,-3997.112087,6809.894666,-76762.768900
1526.956048,10807.006753,15988.448347,-74158.044206
1526.958614,-4145.153275,-7846.182985,-84576.942979
1526.961179,-3404.947333,18505.148550,-72932.291410
1526.963745,16136.489536,-444.123565,-79827.150892
1526.966282,-47965.345042,-16728.654289,-76609.549800
1526.968819,25167.002028,14359.995275,-57763.600549
1526.971356,-26351.331535,-26943.496289,-83044.751983
1526.973893,5477.523971,888.247130,-76915.987999
1526.976430,13767.830521,8438.347739,-74158.044206
1526.978967,-29756.278868,-6217.729913,-76149.892501
1526.981504,8290.306550,10362.883188,-68795.375720
1526.984041,-3404.947333,148.041188,-66497.089226
1526.986579,-8142.265362,2368.659014,-71400.100414
1526.989116,11695.253884,10362.883188,-67876.061123
1526.991653,-7698.141797,9918.759623,-67416.403824
1526.994190,-11103.089130,740.205942,-71246.881314
1526.996727,-1036.288319,3108.864956,-67722.842023
1526.999264,-10214.842000,-5181.441594,-73851.606007
1527.001801,-7846.182985,-6513.812290,-75230.577904
1527.004338,1332.370696,2664.741391,-73851.606007
1527.006876,-20873.807564,-6957.935855,-82585.094684
1527.009413,9474.636058,7846.182985,-75537.016103
1527.011950,-29312.155303,-5329.482782,-79980.369991
1527.014487,19393.395680,19245.354492,-67416.403824
1527.017024,-5921.647536,-8882.471304,-82431.875585
1527.019561,-2220.617826,17468.860231,-65884.212828
1527.022098,31828.855506,12879.583391,-72779.072310
1527.024635,-23982.672521,-2368.659014,-83197.971083
1527.027172,-2220.617826,9178.553681,-81818.999186
1527.029710,13027.624579,6513.812290,-79061.055394
1527.032247,-15396.283594,-11399.171507,-89633.173266
1527.034784,3256.906145,8586.388927,-73545.167808
1527.037321,-1480.411884,9178.553681,-74158.044206
1527.039858,-2516.700203,296.082377,-85802.695776
1527.042395,1036.288319,5181.441594,-77222.426198
1527.044932,3108.864956,8438.347739,-72012.976812
1527.047469,-4145.153275,-2220.617826,-87794.544071
1527.050007,10214.842000,17912.983796,-81206.122788
1527.052544,-7254.018232,7550.100608,-82738.313784
1527.055081,148.041188,5329.482782,-76456.330700
1527.057618,3552.988522,17024.736666,-71400.100414
1527.060155,4441.235652,0.000000,-79673.931792
1527.062692,-14656.077652,11547.212695,-80899.684589
1527.065229,17912.983796,21762.054695,-63126.269035
1527.067772,-21762.054695,-22058.137072,-88407.420469
1527.070316,-28571.949361,-4145.153275,-77069.207099
1527.072859,14359.995275,14656.077652,-69867.909418
1527.075402,-26055.249158,-7994.224174,-83657.628382
1527.077945,4589.276840,11843.295072,-74924.139704
1527.080488,-5329.482782,444.123565,-76915.987999
1527.083031,-23538.548956,-9030.512492,-83197.971083
1527.085575,2368.659014,4145.153275,-75996.673402
1527.088118,-12139.377449,-4293.194464,-79673.931792
1527.090661,-10066.800811,2220.617826,-82431.875585
1527.093204,-7105.977043,6661.853478,-77222.426198
1527.095747,-16580.613101,-10658.965565,-81665.780087
1527.098290,-7994.224174,-4145.153275,-78141.740796
1527.100834,-3108.864956,-3404.947333,-72932.291410
1527.103377,-9622.677246,-7402.059420,-78141.740796
1527.105920,-7698.141797,-148.041188,-76609.549800
1527.108463,-1776.494261,-3404.947333,-78294.959896
1527.111006,-19985.560434,1924.535449,-76915.987999
1527.113549,18949.272115,-148.041188,-78907.836294
1527.116092,-30496.484810,-2516.700203,-81972.218286
1527.118636,39230.914926,30200.402434,-64658.460031
1527.121179,-22502.260637,-10066.800811,-84883.381178
1527.123722,1924.535449,29016.072926,-59142.572446
1527.126265,19097.313304,25315.043216,-61900.516238
1527.128808,-26055.249158,444.123565,-68182.499322
1527.131351,1036.288319,11547.212695,-66190.651027
1527.133895,24130.713709,22650.301825,-58223.257848
1527.136438,-17764.942608,4885.359217,-64964.898230
1527.138981,888.247130,1628.453072,-79061.055394
1527.141524,8142.265362,14656.077652,-64658.460031
1527.144067,11251.130318,10807.006753,-65884.212828
1527.146610,-3404.947333,1924.535449,-77682.083497
1527.149154,12879.583391,20577.725188,-70021.128517
1527.151697,-6365.771101,6957.935855,-79520.712692
1527.154240,4293.194464,7402.059420,-76609.549800
1527.156783,1184.329507,15396.283594,-71553.319513
1527.159326,10807.006753,3701.029710,-74464.482406
1527.161869,-16580.613101,3701.029710,-71246.881314
1527.164413,26499.372724,18653.189738,-61900.516238
1527.166956,-37306.379477,-27091.537477,-85496.257577
1527.169504,-1332.370696,8142.265362,-69255.033019
1527.172052,22354.219448,17912.983796,-65730.993728
1527.174601,-23538.548956,-5329.482782,-79367.493593
1527.177149,-2664.741391,9474.636058,-70787.224015
1527.179697,2368.659014,3997.112087,-69255.033019
1527.182246,-24278.754898,-8882.471304,-81052.903688
1527.184794,6809.894666,4737.318029,-76303.111601
1527.187342,-5181.441594,0.000000,-75843.454302
1527.189891,-11843.295072,-2812.782580,-79367.493593
1527.192439,-1628.453072,7254.018232,-70021.128517
1527.194987,-10362.883188,-10955.047942,-78294.959896
1527.197536,-10807.006753,-5773.606348,-80746.465489
1527.200084,-1184.329507,-1924.535449,-75996.673402
1527.202632,-9474.636058,-5625.565159,-77988.521696
1527.205181,-7698.141797,-1480.411884,-77069.207099
1527.207729,-6069.688724,6513.812290,-71553.319513
1527.210277,-29608.237680,-2516.700203,-77069.207099
1527.212826,27831.743419,15100.201217,-72779.072310
1527.215374,-26499.372724,-11991.336260,-89939.611465
1527.217922,14063.912898,22206.178260,-66803.527426
1527.220470,20725.766376,592.164754,-82738.313784
1527.223019,-24574.837274,-3849.070898,-80746.465489
1527.225567,28423.908173,23390.507767,-64045.583633
1527.228115,-14359.995275,-4885.359217,-77375.645298
1527.230664,5181.441594,9770.718434,-72319.415011
1527.233212,22502.260637,23538.548956,-60368.325242
1527.235760,-17172.777854,2812.782580,-67416.403824
1527.238309,1480.411884,4145.153275,-66037.431928
1527.240857,5033.400406,18357.107362,-68948.594820
1527.243405,16876.695478,10658.965565,-69255.033019
1527.245954,-3552.988522,2072.576638,-77988.521696
1527.248502,9326.594869,21614.013506,-69561.471218
1527.251050,1184.329507,3108.864956,-80593.246390
1527.253599,740.205942,6809.894666,-78294.959896
1527.256147,1184.329507,11547.212695,-74924.139704
1527.258695,19985.560434,9326.594869,-74770.920605
1527.261244,-17024.736666,-11251.130318,-83351.190182
1527.263792,9178.553681,17764.942608,-61134.420740
1527.266340,-15840.407159,-13619.789333,-78754.617194
1527.268889,-33753.390955,-5181.441594,-74311.263306
1527.271442,21317.931130,14508.036463,-63279.488135
1527.273994,-28127.825796,-1924.535449,-76609.549800
1527.276547,-19097.313304,1184.329507,-72932.291410
1527.279100,6661.853478,15692.365970,-64045.583633
1527.281653,-20873.807564,-4293.194464,-73545.167808
1527.284206,2664.741391,-2072.576638,-75843.454302
1527.286759,-592.164754,8142.265362,-71553.319513
1527.289312,-5921.647536,-2960.823768,-83504.409282
1527.291864,-9178.553681,2368.659014,-77528.864398
1527.294417,-13619.789333,-592.164754,-71093.662214
1527.296970,-8586.388927,-9918.759623,-80746.465489
1527.299523,-7698.141797,-8586.388927,-77835.302597
1527.302076,-1924.535449,740.205942,-77069.207099
1527.304629,-13915.871710,-4885.359217,-77682.083497
1527.307182,-1332.370696,10510.924376,-70327.566716
1527.309735,-21021.848753,-10214.842000,-80440.027290
1527.312287,-1628.453072,18357.107362,-65577.774629
1527.314840,28275.866984,9030.512492,-79520.712692
1527.317393,-22206.178260,-4589.276840,-85036.600278
1527.319946,33605.349767,34789.679274,-65577.774629
1527.322499,-24722.878463,-1332.370696,-86262.353075
1527.325052,2220.617826,7550.100608,-81512.560987
1527.327605,17468.860231,14211.954086,-77222.426198
1527.330158,-9474.636058,-11843.295072,-87488.105872
1527.332710,-1184.329507,3997.112087,-73391.948708
1527.335263,-4737.318029,10955.047942,-68029.280222
1527.337816,3552.988522,-5181.441594,-87488.105872
1527.340369,-444.123565,6365.771101,-78754.617194
1527.342922,11251.130318,13915.871710,-70480.785816
1527.345475,-1628.453072,1628.453072,-89479.954166
1527.348028,2960.823768,9770.718434,-77835.302597
1527.350581,15100.201217,14804.118840,-69714.690318
1527.353133,-6365.771101,15248.242405,-72012.976812
1527.355686,7550.100608,148.041188,-80440.027290
1527.358239,-8290.306550,14359.995275,-70021.128517
1527.360792,13175.665768,10807.006753,-72625.853210
1527.363345,-39526.997303,-28868.031738,-87334.886772
1527.365898,9622.677246,10066.800811,-63126.269035
1527.368451,-10362.883188,-21021.848753,-89633.173266
1527.371004,-6069.688724,-4589.276840,-85649.476676
1527.373560,11695.253884,11547.212695,-77682.083497
1527.376116,-25907.207970,-10807.006753,-84270.504780
1527.378672,-7254.018232,592.164754,-75690.235202
1527.381228,3997.112087,0.000000,-71400.100414
1527.383785,-10362.883188,-3108.864956,-75996.673402
1527.386341,-8290.306550,1184.329507,-81818.999186
1527.388897,1036.288319,8734.430116,-73238.729609
1527.391453,-15692.365970,-10955.047942,-81665.780087
1527.394010,-14804.118840,-5921.647536,-79214.274493
1527.396566,-3108.864956,-9030.512492,-75996.673402
1527.399122,-7550.100608,-3256.906145,-77835.302597
1527.401678,-7402.059420,-2516.700203,-79520.712692
1527.404235,-2516.700203,3404.947333,-77222.426198
1527.406791,-25907.207970,-1628.453072,-76456.330700
1527.409347,25018.960840,16432.571912,-69714.690318
1527.411903,-26795.455100,-7105.977043,-83197.971083
1527.414459,29608.237680,30200.402434,-60215.106143
1527.417016,33309.267390,20429.683999,-75383.797003
1527.419572,-28275.866984,-7105.977043,-92084.678860
1527.422128,16136.489536,17172.777854,-73698.386908
1527.424684,-3108.864956,-444.123565,-80133.589091
1527.427241,-13619.789333,-2960.823768,-86722.010374
1527.429797,21614.013506,23242.466579,-64045.583633
1527.432353,-9622.677246,9918.759623,-63892.364533
1527.434909,4145.153275,-5181.441594,-76915.987999
1527.437466,4885.359217,17320.819043,-62206.954438
1527.440022,14211.954086,4293.194464,-74617.701505
1527.442578,-4293.194464,4885.359217,-81665.780087
1527.445134,3256.906145,17320.819043,-77222.426198
1527.447690,-2516.700203,-2072.576638,-86568.791274
1527.450247,4885.359217,9178.553681,-82585.094684
1527.452803,-740.205942,-740.205942,-84576.942979
1527.455359,-19837.519246,4589.276840,-75537.016103
1527.457915,19985.560434,6217.729913,-76456.330700
1527.460472,-45448.644839,-30200.402434,-91471.802461
1527.463028,15396.283594,10362.883188,-65271.336430
1527.465584,-13915.871710,-17912.983796,-86568.791274
1527.468140,-9326.594869,-7550.100608,-82125.437386
1527.470697,14359.995275,12287.418637,-78754.617194
1527.473253,-27979.784608,-9326.594869,-84270.504780
1527.475813,-296.082377,1628.453072,-75537.016103
1527.478372,1480.411884,3552.988522,-68948.594820
1527.480932,-8142.265362,-8882.471304,-75077.358804
1527.483491,6957.935855,10658.965565,-68948.594820
1527.486050,-6957.935855,15100.201217,-61747.297139
1527.488610,-10658.965565,-8438.347739,-74770.920605
1527.491169,-15248.242405,-4145.153275,-76149.892501
1527.493728,-1776.494261,-5773.606348,-73698.386908
1527.496288,-7105.977043,-1924.535449,-75996.673402
1527.498847,-15248.242405,1036.288319,-74004.825107
1527.501406,5477.523971,6069.688724,-76303.111601
1527.503966,-32124.937883,-8734.430116,-82431.875585
1527.506525,23982.672521,23982.672521,-66497.089226
1527.509084,-8882.471304,-9770.718434,-86722.010374
1527.511644,-4441.235652,16432.571912,-70787.224015
1527.514203,31828.855506,11251.130318,-80133.589091
1527.516762,-26647.413912,-8882.471304,-91012.145162
1527.519322,18209.066173,18653.189738,-70327.566716
1527.521881,-2960.823768,-2220.617826,-77375.645298
1527.524440,-9474.636058,-13471.748144,-91931.459760
1527.527000,1036.288319,3404.947333,-72166.195912
1527.529559,-3404.947333,14656.077652,-66037.431928
1527.532118,-148.041188,-1628.453072,-82585.094684
1527.534678,2072.576638,14063.912898,-69714.690318
1527.537237,12435.459826,22946.384202,-61594.078039
1527.539796,2960.823768,6217.729913,-78294.959896
1527.542356,-4145.153275,18949.272115,-70787.224015
1527.544915,8882.471304,8882.471304,-77682.083497
1527.547474,-5921.647536,8142.265362,-69101.813920
1527.550034,25907.207970,19245.354492,-67109.965625
1527.552593,-20577.725188,-13175.665768,-81665.780087
1527.555152,13323.706956,20133.601622,-62973.049936
1527.557712,-18209.066173,-21021.848753,-88100.982270
1527.560271,-37010.297100,-13323.706956,-78294.959896
1527.562831,27091.537477,18357.107362,-58836.134246
1527.565390,-7550.100608,3256.906145,-68642.156621
1527.567949,-16876.695478,4885.359217,-68029.280222
1527.570509,7254.018232,19245.354492,-62819.830836
1527.573068,-21021.848753,-5773.606348,-75843.454302
1527.575627,2368.659014,-6365.771101,-79827.150892
1527.578188,-4441.235652,8882.471304,-71859.757712
1527.580750,4145.153275,-10066.800811,-89939.611465
1527.583311,-19837.519246,-3404.947333,-81972.218286
1527.585872,-4293.194464,-296.082377,-70480.785816
1527.588433,-23538.548956,-13619.789333,-79520.712692
1527.590995,10510.924376,2812.782580,-72472.634111
1527.593556,-5033.400406,-3108.864956,-80593.246390
1527.596117,-11103.089130,-3256.906145,-75537.016103
1527.598678,-19393.395680,2516.700203,-73238.729609
1527.601240,19393.395680,9030.512492,-74004.825107
1527.603801,-27535.661042,-7698.141797,-86415.572174
1527.606362,35529.885216,27683.702231,-67569.622924
1527.608923,-2368.659014,-2516.700203,-80899.684589
1527.611484,-18209.066173,7402.059420,-71093.662214
1527.614046,20577.725188,27239.578666,-56384.628653
1527.616607,-18061.024985,-1776.494261,-69101.813920
1527.619168,24130.713709,18653.189738,-62513.392637
1527.621729,9918.759623,21021.848753,-61900.516238
1527.624291,-12879.583391,2072.576638,-77375.645298
1527.626852,-2220.617826,4589.276840,-71859.757712
1527.629413,-5033.400406,12731.542202,-65577.774629
1527.631974,9770.718434,-5033.400406,-87641.324971
1527.634535,-3404.947333,13175.665768,-76915.987999
1527.637097,592.164754,20429.683999,-70021.128517
1527.639658,-148.041188,1480.411884,-80593.246390
1527.642219,-4441.235652,17912.983796,-73698.386908
1527.644780,10807.006753,3997.112087,-81052.903688
1527.647342,-19541.436869,7994.224174,-74464.482406
1527.649903,29608.237680,14804.118840,-68795.375720
1527.652464,-50334.004056,-35825.967593,-88560.639569
1527.655025,12139.377449,8438.347739,-62513.392637
1527.657587,-1776.494261,-18505.148550,-86262.353075
1527.660148,-13323.706956,-10066.800811,-85802.695776
1527.662709,17912.983796,13915.871710,-79980.369991
1527.665270,-32865.143825,-11843.295072,-83504.409282
1527.667831,-2368.659014,-1036.288319,-77222.426198
1527.670393,740.205942,3108.864956,-76609.549800
1527.672954,-5773.606348,3552.988522,-73085.510509
1527.675515,-9030.512492,-3404.947333,-83810.847481
1527.678076,-7105.977043,11399.171507,-70787.224015
1527.680639,-8438.347739,-5329.482782,-76456.330700
1527.683203,-22354.219448,-8882.471304,-77835.302597
1527.685766,9770.718434,-2072.576638,-72319.415011
1527.688329,-11547.212695,-7698.141797,-84883.381178
1527.690892,-6513.812290,-5181.441594,-83197.971083
1527.693455,-10362.883188,5477.523971,-80286.808190
1527.696018,-9770.718434,-15692.365970,-87334.886772
1527.698581,-4293.194464,9326.594869,-71859.757712
1527.701144,33161.226202,20429.683999,-73238.729609
1527.703707,-22946.384202,-6217.729913,-87488.105872
1527.706270,-2516.700203,18061.024985,-66343.870127
1527.708834,5625.565159,22058.137072,-66497.089226
1527.711397,-13471.748144,-5033.400406,-76915.987999
1527.713960,21465.972318,15840.407159,-65271.336430
1527.716523,3701.029710,8142.265362,-72779.072310
1527.719086,-8734.430116,-2516.700203,-85649.476676
1527.721649,-11547.212695,10658.965565,-75843.454302
1527.724212,1924.535449,7550.100608,-73085.510509
1527.726775,9030.512492,-1036.288319,-85036.600278
1527.729338,7402.059420,23538.548956,-68029.280222
1527.731901,6957.935855,11399.171507,-74770.920605
1527.734465,-9622.677246,7105.977043,-75843.454302
1527.737028,16728.654289,17468.860231,-71706.538613
1527.739591,-8882.471304,-6809.894666,-83351.190182
1527.742154,-27831.743419,7698.141797,-71246.881314
1527.744717,38194.626607,16136.489536,-62666.611736
1527.747280,-56699.775157,-34049.473332,-87794.544071
1527.749843,7550.100608,4145.153275,-70327.566716
1527.752406,9622.677246,-11695.253884,-86415.572174
1527.754969,-26795.455100,-11251.130318,-89173.515967
1527.757532,22502.260637,11991.336260,-81665.780087
1527.760096,-34641.638086,-11843.295072,-88560.639569
1527.762659,-9030.512492,-7105.977043,-89326.735067
1527.765222,2368.659014,1036.288319,-77375.645298
1527.767785,-10807.006753,-5477.523971,-77069.207099
1527.770348,12435.459826,2960.823768,-75537.016103
1527.772911,-7550.100608,15692.365970,-60215.106143
1527.775474,-11547.212695,-13027.624579,-77222.426198
1527.778037,-19245.354492,-15544.324782,-84423.723880
1527.780600,8142.265362,2220.617826,-77682.083497
1527.783165,-8882.471304,-9030.512492,-90858.926063
1527.785730,-10066.800811,-3849.070898,-83351.190182
1527.788295,-21465.972318,1332.370696,-77222.426198
1527.790859,6809.894666,-7254.018232,-81972.218286
1527.793424,-21614.013506,2368.659014,-80286.808190
1527.795989,39378.956114,35825.967593,-61900.516238
1527.798554,-17912.983796,-1628.453072,-79827.150892
1527.801118,2368.659014,24574.837274,-60521.544342
1527.803683,10807.006753,22798.343014,-58376.476948
1527.806248,-21021.848753,-1480.411884,-72319.415011
1527.808812,25759.166782,15544.324782,-68029.280222
1527.811377,7254.018232,5477.523971,-79367.493593
1527.813942,-12879.583391,9030.512492,-71093.662214
1527.816507,-1628.453072,740.205942,-74004.825107
1527.819071,-2072.576638,11399.171507,-66190.651027
1527.821636,9918.759623,4293.194464,-81972.218286
1527.824201,5329.482782,15100.201217,-79367.493593
1527.826766,-2960.823768,13175.665768,-75077.358804
1527.829330,-592.164754,3552.988522,-80746.465489
1527.831895,-4441.235652,13175.665768,-72319.415011
1527.834460,19097.313304,11843.295072,-72012.976812
1527.837025,-21169.889941,-2812.782580,-74924.139704
1527.839589,32717.102636,24130.713709,-59908.667944
1527.842154,-39378.956114,-30496.484810,-87794.544071
1527.844719,-20133.601622,-1184.329507,-69561.471218
1527.847283,19097.313304,21317.931130,-55618.533155
1527.849848,-16876.695478,0.000000,-70021.128517
1527.852413,-3404.947333,16136.489536,-65577.774629
1527.854978,6513.812290,15396.283594,-63126.269035
1527.857542,-24278.754898,-9622.677246,-78141.740796
1527.860107,-7846.182985,1628.453072,-74617.701505
1527.862672,-1480.411884,7846.182985,-73085.510509
1527.865237,-10955.047942,-8142.265362,-88713.858668
1527.867801,-15248.242405,2960.823768,-77375.645298
1527.870366,-8586.388927,-5625.565159,-76609.549800
1527.872931,-23834.631332,-17024.736666,-83964.066581
1527.875496,12287.418637,6809.894666,-71553.319513
1527.878060,-17764.942608,-6069.688724,-82125.437386
1527.880625,-3849.070898,3701.029710,-81512.560987
1527.883190,-11103.089130,-13471.748144,-76303.111601
1527.885755,1776.494261,17172.777854,-65577.774629
1527.888321,23982.672521,2072.576638,-86722.010374
1527.890886,-13175.665768,4885.359217,-84423.723880
1527.893452,26351.331535,27239.578666,-71859.757712
1527.896017,-21614.013506,-10807.006753,-91931.459760
1527.898583,-4145.153275,7550.100608,-79520.712692
1527.901148,10066.800811,1924.535449,-82585.094684
1527.903713,-9622.677246,-2368.659014,-85343.038477
1527.906279,11399.171507,18357.107362,-66190.651027
1527.908844,-4885.359217,11103.089130,-61900.516238
1527.911410,-7846.182985,-2812.782580,-74158.044206
1527.913975,17764.942608,13027.624579,-68335.718422
1527.916541,9178.553681,21169.889941,-70327.566716
1527.919106,-13767.830521,8882.471304,-81206.122788
1527.921672,6957.935855,12287.418637,-74617.701505
1527.924237,4441.235652,15840.407159,-70787.224015
1527.926803,-3108.864956,-592.164754,-78141.740796
1527.929368,0.000000,19097.313304,-66343.870127
1527.931933,15248.242405,7698.141797,-76762.768900
1527.934499,-45892.768404,-26499.372724,-85802.695776
1527.937064,13323.706956,9474.636058,-60215.106143
1527.939630,-28571.949361,-26351.331535,-82891.532884
1527.942195,4441.235652,-2960.823768,-76762.768900
1527.944761,16284.530724,15396.283594,-73085.510509
1527.947326,-26055.249158,-5773.606348,-81206.122788
1527.949892,-444.123565,10066.800811,-68795.375720
1527.952457,2220.617826,4737.318029,-71400.100414
1527.955023,-4885.359217,-3701.029710,-74158.044206
1527.957588,592.164754,4885.359217,-75077.358804
1527.960154,-4737.318029,16876.695478,-60981.201641
1527.962719,-16432.571912,-8734.430116,-76303.111601
1527.965284,-21169.889941,-13175.665768,-77222.426198
1527.967850,14359.995275,11547.212695,-68029.280222
1527.970415,-8438.347739,-2516.700203,-76609.549800
1527.972981,-6661.853478,13175.665768,-69255.033019
1527.975546,-25611.125593,-11843.295072,-73698.386908
1527.978112,3997.112087,16432.571912,-63432.707234
1527.980677,14359.995275,-5921.647536,-85955.914876
1527.983243,-9178.553681,14952.160028,-75077.358804
1527.985808,31384.731941,22946.384202,-75843.454302
1527.988374,-21465.972318,-5625.565159,-93463.650756
1527.990940,-13767.830521,1924.535449,-83964.066581
1527.993507,17468.860231,6365.771101,-82738.313784
1527.996073,-7402.059420,-8734.430116,-86875.229473
1527.998639,2960.823768,7402.059420,-74004.825107
1528.001205,2072.576638,13323.706956,-68029.280222
1528.003771,-8290.306550,-5773.606348,-78907.836294
1528.006337,5921.647536,14359.995275,-69408.252119
