#time,accel_x,accel_y,accel_z
5060.266676,-5773.606348,2960.823768,-75383.797003
5060.269253,-1628.453072,5625.565159,-76303.111601
5060.271831,148.041188,4885.359217,-76456.330700
5060.274408,-2812.782580,4293.194464,-75996.673402
5060.276986,1480.411884,7105.977043,-72166.195912
5060.279564,444.123565,6217.729913,-72166.195912
5060.282141,-22206.178260,9770.718434,-76762.768900
5060.284719,5033.400406,12879.583391,-80440.027290
5060.287296,-14211.954086,12583.501014,-76456.330700
5060.289874,15840.407159,13175.665768,-79061.055394
5060.292451,-9770.718434,12287.418637,-71859.757712
5060.295029,3256.906145,5033.400406,-71093.662214
5060.297606,9474.636058,13767.830521,-68642.156621
5060.300184,-15692.365970,-3997.112087,-79214.274493
5060.302761,5625.565159,12435.459826,-72319.415011
5060.305339,-13027.624579,-10510.924376,-80899.684589
5060.307916,-592.164754,-2960.823768,-80746.465489
5060.310494,-4737.318029,-3108.864956,-81512.560987
5060.313071,-14063.912898,-1332.370696,-78141.740796
5060.315649,-6661.853478,1036.288319,-81359.341888
5060.318226,-5477.523971,4737.318029,-76303.111601
5060.320804,-5773.606348,3849.070898,-75383.797003
5060.323383,2220.617826,148.041188,-77835.302597
5060.325962,-9030.512492,5033.400406,-73545.167808
5060.328541,-5477.523971,7550.100608,-71859.757712
5060.331120,-3256.906145,-1332.370696,-73085.510509
5060.333699,-6661.853478,3404.947333,-71859.757712
5060.336278,1036.288319,5625.565159,-70787.224015
5060.338857,-5921.647536,6365.771101,-71246.881314
5060.341436,2368.659014,1776.494261,-77682.083497
5060.344015,1480.411884,3256.906145,-78294.959896
5060.346594,-4293.194464,2664.741391,-76609.549800
5060.349173,-10807.006753,-888.247130,-78448.178995
5060.351752,296.082377,2368.659014,-73545.167808
5060.354331,-6513.812290,7698.141797,-70327.566716
5060.356910,-148.041188,-4441.235652,-78907.836294
5060.359489,-13767.830521,1628.453072,-73391.948708
5060.362068,-1776.494261,2072.576638,-75383.797003
5060.364647,-2960.823768,-1184.329507,-79673.931792
5060.367226,-10362.883188,3256.906145,-74770.920605
5060.369805,7994.224174,0.000000,-75996.673402
5060.372384,-16728.654289,1184.329507,-78754.617194
5060.374963,8142.265362,-1332.370696,-77835.302597
5060.377542,-14063.912898,-1036.288319,-74464.482406
5060.380121,8586.388927,-740.205942,-79827.150892
5060.382700,-15692.365970,148.041188,-80440.027290
5060.385279,9918.759623,12139.377449,-74311.263306
5060.387858,-10658.965565,-6957.935855,-76303.111601
5060.390437,-10066.800811,3701.029710,-69561.471218
5060.393016,20429.683999,18209.066173,-65271.336430
5060.395595,-37454.420665,-12139.377449,-80440.027290
5060.398174,43672.150578,33161.226202,-62513.392637
5060.400753,-13471.748144,888.247130,-78448.178995
5060.403332,-16728.654289,3108.864956,-75843.454302
5060.405911,13471.748144,17616.901420,-58223.257848
5060.408490,-10955.047942,-7105.977043,-74311.263306
5060.411069,10807.006753,18061.024985,-64198.802732
5060.413648,-5921.647536,5181.441594,-65884.212828
5060.416227,-11547.212695,1480.411884,-74924.139704
5060.418806,7254.018232,17024.736666,-72779.072310
5060.421385,-3701.029710,4145.153275,-74464.482406
5060.423964,-1628.453072,-2812.782580,-81206.122788
5060.426544,11251.130318,21465.972318,-64964.898230
5060.429124,-7105.977043,-2368.659014,-79980.369991
5060.431704,-1036.288319,-888.247130,-79214.274493
5060.434284,6217.729913,13323.706956,-69561.471218
5060.436865,-1776.494261,-2960.823768,-83351.190182
5060.439445,-5329.482782,7105.977043,-75690.235202
5060.442025,-444.123565,2812.782580,-74924.139704
5060.444605,296.082377,-1036.288319,-80440.027290
5060.447185,-6957.935855,4145.153275,-75690.235202
5060.449766,2812.782580,2220.617826,-76149.892501
5060.452346,148.041188,9770.718434,-75843.454302
5060.454926,3256.906145,13619.789333,-71859.757712
5060.457506,-1924.535449,15100.201217,-72319.415011
5060.460086,-9474.636058,7254.018232,-74004.825107
5060.462667,4293.194464,2812.782580,-78141.740796
5060.465247,1332.370696,6661.853478,-76609.549800
5060.467827,-1628.453072,1184.329507,-76609.549800
5060.470407,4293.194464,5181.441594,-81052.903688
5060.472988,-17468.860231,2664.741391,-80133.589091
5060.475568,4293.194464,5477.523971,-75843.454302
5060.478148,-6365.771101,-3108.864956,-79980.369991
5060.480728,17764.942608,14063.912898,-74770.920605
5060.483308,-11547.212695,296.082377,-80286.808190
5060.485889,0.000000,19245.354492,-69561.471218
5060.488469,26055.249158,13471.748144,-68029.280222
5060.491049,-39823.079680,-29756.278868,-89173.515967
5060.493629,18949.272115,18061.024985,-62666.611736
5060.496209,2516.700203,-1036.288319,-75077.358804
5060.498790,-40859.367998,3256.906145,-77835.302597
5060.501370,28275.866984,29164.114115,-59142.572446
5060.503950,-25315.043216,-10510.924376,-80286.808190
5060.506530,13175.665768,11991.336260,-66037.431928
5060.509110,-2220.617826,10214.842000,-60674.763442
5060.511691,-32865.143825,-13027.624579,-74004.825107
5060.514271,9622.677246,17172.777854,-56844.285952
5060.516851,-3849.070898,-2664.741391,-71553.319513
5060.519431,-13619.789333,10066.800811,-73698.386908
5060.522011,14211.954086,15396.283594,-70787.224015
5060.524592,-23390.507767,-11843.295072,-90399.268764
5060.527172,-11103.089130,-4737.318029,-81972.218286
5060.529753,5477.523971,3997.112087,-69867.909418
5060.532334,-21021.848753,-7994.224174,-80593.246390
5060.534915,-148.041188,8882.471304,-70021.128517
5060.537496,2664.741391,9030.512492,-69101.813920
5060.540077,-11547.212695,-1480.411884,-76915.987999
5060.542659,-592.164754,8882.471304,-68795.375720
5060.545240,-9474.636058,5329.482782,-73698.386908
5060.547821,-5625.565159,-148.041188,-76456.330700
5060.550402,-4441.235652,5921.647536,-67876.061123
5060.552983,-8734.430116,0.000000,-75383.797003
5060.555564,-8586.388927,-3701.029710,-75690.235202
5060.558146,148.041188,3404.947333,-73391.948708
5060.560727,-10658.965565,3997.112087,-76915.987999
5060.563308,-7846.182985,-4293.194464,-77835.302597
5060.565889,2516.700203,5329.482782,-74770.920605
5060.568470,-8734.430116,-2220.617826,-81665.780087
5060.571051,4737.318029,-1480.411884,-78141.740796
5060.573632,-17024.736666,1776.494261,-76762.768900
5060.576214,12287.418637,-2072.576638,-80899.684589
5060.578795,-27091.537477,1480.411884,-79214.274493
5060.581376,23242.466579,10362.883188,-74770.920605
5060.583957,-29460.196492,-10807.006753,-78907.836294
5060.586538,14063.912898,18209.066173,-62973.049936
5060.589119,11695.253884,-5181.441594,-74617.701505
5060.591700,-31384.731941,-3256.906145,-75690.235202
5060.594282,42487.821071,34641.638086,-60061.887043
5060.596863,9622.677246,4145.153275,-78294.959896
5060.599444,-31088.649564,-1480.411884,-80593.246390
5060.602025,20873.807564,16284.530724,-60061.887043
5060.604606,-15988.448347,-10214.842000,-73545.167808
5060.607187,6069.688724,9918.759623,-67876.061123
5060.609769,20577.725188,9770.718434,-72472.634111
5060.612350,-12287.418637,-2368.659014,-87028.448573
5060.614931,8734.430116,18505.148550,-74617.701505
5060.617512,592.164754,7105.977043,-70174.347617
5060.620093,-10214.842000,-5033.400406,-81818.999186
5060.622674,15544.324782,13471.748144,-68335.718422
5060.625255,-13175.665768,3256.906145,-75843.454302
5060.627837,1332.370696,3701.029710,-76609.549800
5060.630418,9030.512492,12879.583391,-67722.842023
5060.632970,-13471.748144,0.000000,-74617.701505
5060.635523,-296.082377,-2072.576638,-77222.426198
5060.638075,5181.441594,9770.718434,-66956.746525
5060.640628,-7402.059420,2516.700203,-78601.398095
5060.643181,4885.359217,4885.359217,-75690.235202
5060.645733,-1184.329507,13767.830521,-69561.471218
5060.648286,0.000000,7402.059420,-78141.740796
5060.650838,0.000000,11843.295072,-71093.662214
5060.653391,-7402.059420,6069.688724,-76149.892501
5060.655944,9622.677246,9178.553681,-76609.549800
5060.658496,-6809.894666,444.123565,-76762.768900
5060.661049,5773.606348,1184.329507,-78141.740796
5060.663601,-3552.988522,15988.448347,-70174.347617
5060.666154,-5033.400406,1628.453072,-77988.521696
5060.668707,-4293.194464,5921.647536,-75843.454302
5060.671259,3849.070898,3108.864956,-71859.757712
5060.673812,-15692.365970,10510.924376,-70327.566716
5060.676364,24574.837274,15840.407159,-67876.061123
5060.678917,-31976.896694,-10807.006753,-83351.190182
5060.681469,-7402.059420,11843.295072,-68795.375720
5060.684022,9770.718434,6365.771101,-73085.510509
5060.686575,-35381.844028,-24722.878463,-87641.324971
5060.689127,39971.120868,22798.343014,-62360.173537
5060.691680,-35381.844028,-13175.665768,-82891.532884
5060.694232,6661.853478,9770.718434,-78601.398095
5060.696785,6365.771101,9326.594869,-75077.358804
5060.699338,-23686.590144,-16876.695478,-92391.117059
5060.701890,13915.871710,6365.771101,-78601.398095
5060.704443,-20429.683999,-16432.571912,-85496.257577
5060.706995,-28127.825796,-16728.654289,-86875.229473
5060.709548,14211.954086,16728.654289,-69561.471218
5060.712100,-10214.842000,6513.812290,-74924.139704
5060.714653,-5921.647536,-888.247130,-77682.083497
5060.717206,6069.688724,16876.695478,-58376.476948
5060.719758,-15988.448347,-6217.729913,-74924.139704
5060.722311,-6513.812290,-3997.112087,-74004.825107
5060.724863,-3552.988522,15100.201217,-65577.774629
5060.727416,2812.782580,2368.659014,-76456.330700
5060.729969,-7994.224174,3404.947333,-66956.746525
5060.732521,-1332.370696,7698.141797,-67876.061123
5060.735080,296.082377,740.205942,-78754.617194
5060.737638,-15840.407159,5181.441594,-74004.825107
5060.740196,2220.617826,-148.041188,-75996.673402
5060.742755,-3256.906145,-3997.112087,-77069.207099
5060.745313,-4293.194464,2368.659014,-73238.729609
5060.747871,3701.029710,5181.441594,-74770.920605
5060.750430,-19689.478057,444.123565,-73085.510509
5060.752988,592.164754,4589.276840,-71093.662214
5060.755546,-5773.606348,1628.453072,-75230.577904
5060.758105,-2664.741391,-6365.771101,-77682.083497
5060.760663,-3997.112087,5329.482782,-72932.291410
5060.763221,1184.329507,-2960.823768,-81052.903688
5060.765780,-19689.478057,6513.812290,-76762.768900
5060.768338,21317.931130,9918.759623,-70787.224015
5060.770896,-42191.738694,-11103.089130,-81972.218286
5060.773454,33309.267390,20429.683999,-66037.431928
5060.776013,19985.560434,10955.047942,-68335.718422
5060.778571,-39230.914926,-11843.295072,-82738.313784
5060.781129,51074.209998,38934.832549,-58989.353346
5060.783688,-33161.226202,-5181.441594,-83657.628382
5060.786246,-3404.947333,12435.459826,-74617.701505
5060.788804,19689.478057,21021.848753,-57303.943250
5060.791363,-25167.002028,-12583.501014,-77222.426198
5060.793921,20429.683999,22798.343014,-58682.915147
5060.796479,-16432.571912,3849.070898,-66803.527426
5060.799038,-6365.771101,7254.018232,-74158.044206
5060.801596,19837.519246,25611.125593,-65424.555529
5060.804154,-20429.683999,2220.617826,-81206.122788
5060.806713,12731.542202,6069.688724,-74770.920605
5060.809271,-7846.182985,2220.617826,-76456.330700
5060.811829,-5773.606348,-148.041188,-83351.190182
5060.814388,7105.977043,2220.617826,-76762.768900
5060.816946,-3404.947333,9474.636058,-72932.291410
5060.819504,-1036.288319,1184.329507,-79673.931792
5060.822063,-4589.276840,7698.141797,-68488.937521
5060.824621,-592.164754,2516.700203,-78141.740796
5060.827179,6365.771101,5329.482782,-77222.426198
5060.829738,5181.441594,15692.365970,-71093.662214
5060.832296,-592.164754,2960.823768,-79061.055394
5060.834854,-3404.947333,3849.070898,-76915.987999
5060.837418,2516.700203,8142.265362,-76149.892501
5060.839981,3108.864956,10362.883188,-75537.016103
5060.842544,-5625.565159,2220.617826,-73545.167808
5060.845107,6513.812290,1776.494261,-73391.948708
5060.847671,-7550.100608,11103.089130,-75996.673402
5060.850234,740.205942,10362.883188,-70787.224015
5060.852797,-1924.535449,4885.359217,-74311.263306
5060.855360,12583.501014,10658.965565,-71093.662214
5060.857923,-11547.212695,20429.683999,-64352.021832
5060.860487,20725.766376,10510.924376,-70021.128517
5060.863050,-31976.896694,-10510.924376,-80133.589091
5060.865613,19985.560434,21021.848753,-63432.707234
5060.868176,-9918.759623,-6957.935855,-80440.027290
5060.870740,-35825.967593,-17764.942608,-84730.162079
5060.873303,35529.885216,20429.683999,-64505.240932
5060.875866,-41747.615129,-17172.777854,-87641.324971
5060.878429,31088.649564,18209.066173,-67263.184724
5060.880992,-15544.324782,9030.512492,-69408.252119
5060.883556,-27387.619854,-18949.272115,-93003.993457
5060.886119,13471.748144,5181.441594,-81512.560987
5060.888682,-12139.377449,-8438.347739,-79673.931792
5060.891245,-18801.230927,-18209.066173,-89479.954166
5060.893809,12287.418637,16284.530724,-69255.033019
5060.896372,-16284.530724,3256.906145,-79061.055394
5060.898935,6513.812290,7550.100608,-73545.167808
5060.901498,0.000000,9770.718434,-65730.993728
5060.904061,-13915.871710,-9474.636058,-79214.274493
5060.906625,-888.247130,4441.235652,-65118.117330
5060.909188,-1924.535449,7698.141797,-68642.156621
5060.911751,1184.329507,-1036.288319,-78601.398095
5060.914314,-6513.812290,9326.594869,-66343.870127
5060.916877,-7550.100608,1776.494261,-71246.881314
5060.919441,-8882.471304,-3997.112087,-79214.274493
5060.922004,-11251.130318,1628.453072,-74311.263306
5060.924567,1036.288319,-3701.029710,-76149.892501
5060.927130,-4441.235652,-740.205942,-78294.959896
5060.929694,-3108.864956,6957.935855,-74158.044206
5060.932257,-14804.118840,-3552.988522,-74924.139704
5060.934820,-2220.617826,5033.400406,-71706.538613
5060.937383,-3552.988522,2368.659014,-74004.825107
5060.939950,-148.041188,-6365.771101,-78294.959896
5060.942518,-13471.748144,3108.864956,-77835.302597
5060.945085,11547.212695,1332.370696,-79673.931792
5060.947652,-31384.731941,592.164754,-79827.150892
5060.950219,26943.496289,12139.377449,-74004.825107
5060.952787,-34937.720462,-10362.883188,-80286.808190
5060.955354,-21910.095883,3997.112087,-71093.662214
5060.957921,33013.185013,18357.107362,-66803.527426
5060.960488,-43228.027013,-10214.842000,-82738.313784
5060.963056,42191.738694,36270.091158,-62819.830836
5060.965623,-3997.112087,-296.082377,-79061.055394
5060.968190,-25463.084405,3701.029710,-76915.987999
5060.970757,25018.960840,19837.519246,-57916.819649
5060.973325,-23834.631332,-9030.512492,-72779.072310
5060.975892,10807.006753,17616.901420,-61440.858940
5060.978459,5033.400406,13323.706956,-60215.106143
5060.981026,-18209.066173,3108.864956,-77988.521696
5060.983594,24426.796086,25611.125593,-67876.061123
5060.986161,-13471.748144,4441.235652,-80133.589091
5060.988728,888.247130,1184.329507,-86875.229473
5060.991295,12287.418637,10362.883188,-69867.909418
5060.993863,-13619.789333,444.123565,-77222.426198
5060.996430,6513.812290,2664.741391,-77682.083497
5060.998997,444.123565,11991.336260,-70940.443115
5061.001564,-4293.194464,2072.576638,-83044.751983
5061.004132,888.247130,7846.182985,-72779.072310
5061.006699,-6809.894666,4441.235652,-74770.920605
5061.009266,5033.400406,3552.988522,-79367.493593
5061.011833,2368.659014,10510.924376,-71400.100414
5061.014400,-3404.947333,7105.977043,-77835.302597
5061.016968,9474.636058,11843.295072,-75843.454302
5061.019535,-9918.759623,13471.748144,-72319.415011
5061.022102,3997.112087,2368.659014,-75996.673402
5061.024669,7105.977043,5329.482782,-74924.139704
5061.027237,-16728.654289,-3108.864956,-77835.302597
5061.029804,592.164754,6809.894666,-76456.330700
5061.032371,592.164754,-1776.494261,-81359.341888
5061.034938,5921.647536,15840.407159,-77682.083497
5061.037506,1776.494261,296.082377,-83964.066581
5061.040073,-12583.501014,18061.024985,-67876.061123
5061.042643,17320.819043,148.041188,-77222.426198
5061.045213,-40415.244433,-24574.837274,-84730.162079
5061.047783,25463.084405,15100.201217,-62360.173537
5061.050352,-20577.725188,-14211.954086,-80746.465489
5061.052922,-14359.995275,11991.336260,-73085.510509
5061.055492,18801.230927,20281.642811,-70480.785816
5061.058062,-26055.249158,-3701.029710,-87334.886772
5061.060632,9474.636058,14211.954086,-73545.167808
5061.063202,9474.636058,10807.006753,-61900.516238
5061.065772,-24722.878463,-14508.036463,-76762.768900
5061.068342,-1036.288319,15692.365970,-58836.134246
5061.070911,-6365.771101,-2664.741391,-73698.386908
5061.073481,-14804.118840,148.041188,-79520.712692
5061.076051,12287.418637,17616.901420,-67416.403824
5061.078621,-9622.677246,-1924.535449,-81665.780087
5061.081191,-7550.100608,7698.141797,-74158.044206
5061.083761,-148.041188,0.000000,-72779.072310
5061.086331,-15248.242405,-9622.677246,-81972.218286
5061.088901,8142.265362,8882.471304,-75077.358804
5061.091470,-5329.482782,3108.864956,-78448.178995
5061.094040,-12583.501014,2220.617826,-76762.768900
5061.096610,-5625.565159,3552.988522,-72472.634111
5061.099180,-10362.883188,-3997.112087,-78294.959896
5061.101750,-5329.482782,888.247130,-75996.673402
5061.104320,296.082377,1924.535449,-72932.291410
5061.106890,-15544.324782,-1628.453072,-77835.302597
5061.109460,0.000000,4885.359217,-74158.044206
5061.112029,-12139.377449,2368.659014,-77528.864398
5061.114599,-5625.565159,-7402.059420,-79061.055394
5061.117169,5773.606348,7846.182985,-68948.594820
5061.119739,-17024.736666,-9178.553681,-80286.808190
5061.122309,-5033.400406,17172.777854,-66803.527426
5061.124879,6513.812290,-888.247130,-76456.330700
5061.127449,-19689.478057,-1332.370696,-76456.330700
5061.130019,30644.525999,10362.883188,-71859.757712
5061.132588,-47373.180288,-15396.283594,-88254.201370
5061.135158,36122.049970,22502.260637,-71553.319513
5061.137728,33605.349767,20429.683999,-69867.909418
5061.140298,-36122.049970,-7254.018232,-86262.353075
5061.142868,36714.214723,34345.555709,-62206.954438
5061.145440,-26499.372724,888.247130,-79061.055394
5061.148012,-8734.430116,-10362.883188,-87181.667672
5061.150584,20133.601622,15248.242405,-73391.948708
5061.153157,-20281.642811,-14359.995275,-96834.470947
5061.155729,9622.677246,7402.059420,-81206.122788
5061.158301,-296.082377,8290.306550,-77069.207099
5061.160873,-12731.542202,1924.535449,-83197.971083
5061.163445,16136.489536,21317.931130,-60981.201641
5061.166017,-11251.130318,-1036.288319,-76303.111601
5061.168590,-1776.494261,4293.194464,-75077.358804
5061.171162,-1480.411884,13027.624579,-63892.364533
5061.173734,-5033.400406,5329.482782,-72932.291410
5061.176306,9474.636058,5181.441594,-76303.111601
5061.178878,-8438.347739,10362.883188,-72319.415011
5061.181450,-4293.194464,740.205942,-79827.150892
5061.184023,3552.988522,9326.594869,-74158.044206
5061.186595,148.041188,8142.265362,-74924.139704
5061.189167,11103.089130,8290.306550,-78907.836294
5061.191739,-4441.235652,14952.160028,-74158.044206
5061.194311,-6069.688724,3997.112087,-78448.178995
5061.196884,1184.329507,5625.565159,-72932.291410
5061.199456,-444.123565,8290.306550,-71400.100414
5061.202028,3849.070898,-4145.153275,-75996.673402
5061.204600,-11251.130318,9474.636058,-74311.263306
5061.207172,2220.617826,11695.253884,-73391.948708
5061.209744,-3849.070898,17172.777854,-69255.033019
5061.212317,17764.942608,10362.883188,-73238.729609
5061.214889,-19985.560434,-4737.318029,-76456.330700
5061.217461,12287.418637,19837.519246,-61440.858940
5061.220033,-24574.837274,-18653.189738,-82125.437386
5061.222605,-27683.702231,-11547.212695,-76609.549800
5061.225177,28275.866984,19985.560434,-68488.937521
5061.227750,-27535.661042,-12731.542202,-88254.201370
5061.230324,25907.207970,25759.166782,-61440.858940
5061.232897,-22798.343014,7846.182985,-67109.965625
5061.235471,-6809.894666,-6069.688724,-71093.662214
5061.238044,8882.471304,11843.295072,-62053.735338
5061.240617,-15100.201217,-18061.024985,-81052.903688
5061.243191,-7254.018232,8586.388927,-65884.212828
5061.245764,-4145.153275,15248.242405,-68488.937521
5061.248338,-5033.400406,-4293.194464,-84730.162079
5061.250911,7698.141797,7846.182985,-77375.645298
5061.253485,1480.411884,7402.059420,-74311.263306
5061.256058,-19689.478057,-6217.729913,-80593.246390
5061.258631,-7550.100608,4589.276840,-67109.965625
5061.261205,-4589.276840,-1480.411884,-72472.634111
5061.263778,2220.617826,3552.988522,-77375.645298
5061.266352,-1036.288319,7846.182985,-72472.634111
5061.268925,-10510.924376,-3404.947333,-74464.482406
5061.271498,-11251.130318,2812.782580,-73238.729609
5061.274072,2220.617826,-1036.288319,-75383.797003
5061.276645,-8586.388927,-3108.864956,-76149.892501
5061.279219,-6365.771101,-1332.370696,-74924.139704
5061.281792,592.164754,6809.894666,-73545.167808
5061.284366,-18653.189738,3552.988522,-76915.987999
5061.286939,9178.553681,2368.659014,-76303.111601
5061.289512,-17172.777854,-3108.864956,-78601.398095
5061.292086,8142.265362,7402.059420,-75843.454302
5061.294659,-24870.919651,-5033.400406,-83964.066581
5061.297233,11843.295072,9178.553681,-78601.398095
5061.299806,-23982.672521,-9474.636058,-80133.589091
5061.302380,9030.512492,13767.830521,-67569.622924
5061.304953,10362.883188,3849.070898,-72779.072310
5061.307526,-20577.725188,-4737.318029,-77375.645298
5061.310100,33753.390955,38342.667796,-60061.887043
5061.312673,-36270.091158,-10658.965565,-88560.639569
5061.315247,11695.253884,18357.107362,-72319.415011
5061.317820,14952.160028,23390.507767,-56997.505051
5061.320393,-17616.901420,-7994.224174,-72625.853210
5061.322967,2812.782580,12879.583391,-63739.145434
5061.325540,9326.594869,22502.260637,-57150.724151
5061.328114,-14804.118840,444.123565,-77682.083497
5061.330688,14063.912898,23538.548956,-67876.061123
5061.333262,444.123565,3108.864956,-80440.027290
5061.335836,-5921.647536,-3108.864956,-84423.723880
5061.338410,8142.265362,13175.665768,-70021.128517
5061.340984,-8734.430116,-2368.659014,-82738.313784
5061.343558,-7254.018232,4441.235652,-78907.836294
5061.346133,2664.741391,6957.935855,-77988.521696
5061.348707,-2220.617826,-5921.647536,-87028.448573
5061.351281,-7994.224174,5773.606348,-73545.167808
5061.353855,3108.864956,8882.471304,-69867.909418
5061.356429,-444.123565,2516.700203,-78907.836294
5061.359003,9622.677246,20429.683999,-72625.853210
5061.361577,-5181.441594,9030.512492,-74311.263306
5061.364151,-9474.636058,5477.523971,-76762.768900
5061.366725,10658.965565,9770.718434,-73085.510509
5061.369300,-10955.047942,-2960.823768,-78907.836294
5061.371874,6661.853478,7994.224174,-71093.662214
5061.374448,-6957.935855,4885.359217,-72625.853210
5061.377022,-296.082377,10955.047942,-73238.729609
5061.379596,-5181.441594,15988.448347,-66343.870127
5061.382170,25018.960840,13471.748144,-72779.072310
5061.384744,-20133.601622,-11251.130318,-85496.257577
5061.387318,296.082377,13175.665768,-69255.033019
5061.389893,17764.942608,10955.047942,-66956.746525
5061.392467,-35085.761651,-29608.237680,-89020.296868
5061.395041,26647.413912,18061.024985,-67109.965625
5061.397615,-6069.688724,2516.700203,-78907.836294
5061.400189,-15100.201217,1332.370696,-88867.077768
5061.402763,6069.688724,15692.365970,-74158.044206
5061.405337,-24574.837274,-19837.519246,-89020.296868
5061.407911,13619.789333,-2072.576638,-80746.465489
5061.410486,-7698.141797,-7846.182985,-78907.836294
5061.413060,-20281.642811,-13027.624579,-82585.094684
5061.415634,-148.041188,16136.489536,-66497.089226
5061.418208,-148.041188,1184.329507,-77835.302597
5061.420782,4589.276840,3701.029710,-76762.768900
5061.423356,-4441.235652,14063.912898,-68642.156621
5061.425930,-3552.988522,-1480.411884,-78907.836294
5061.428504,-12583.501014,-11695.253884,-83964.066581
5061.431078,296.082377,10362.883188,-72625.853210
5061.433653,148.041188,1036.288319,-80286.808190
5061.436228,-13619.789333,2072.576638,-76762.768900
5061.438803,-1184.329507,4885.359217,-71859.757712
5061.441378,-10214.842000,-5329.482782,-77222.426198
5061.443953,-9326.594869,-2220.617826,-75537.016103
5061.446527,6661.853478,1628.453072,-73851.606007
5061.449102,-8142.265362,6069.688724,-77682.083497
5061.451677,-13767.830521,1628.453072,-74311.263306
5061.454252,4885.359217,11695.253884,-70480.785816
5061.456827,-23686.590144,-5329.482782,-78141.740796
5061.459401,15396.283594,17468.860231,-66650.308326
5061.461976,12879.583391,-1332.370696,-75077.358804
5061.464551,-34937.720462,740.205942,-75996.673402
5061.467126,27831.743419,7994.224174,-78754.617194
5061.469701,-41303.491564,-14656.077652,-90705.706963
5061.472275,33605.349767,25907.207970,-70327.566716
5061.474850,9326.594869,-4441.235652,-84270.504780
5061.477425,-25463.084405,1924.535449,-79061.055394
5061.480000,30348.443622,27683.702231,-63892.364533
5061.482575,-26351.331535,-17172.777854,-89479.954166
5061.485149,11843.295072,1332.370696,-80593.246390
5061.487724,13915.871710,888.247130,-77682.083497
5061.490299,-22502.260637,-10955.047942,-90399.268764
5061.492874,18505.148550,22354.219448,-65577.774629
5061.495449,-14656.077652,9918.759623,-73391.948708
5061.498023,-13323.706956,2072.576638,-81206.122788
5061.500598,20725.766376,19985.560434,-62666.611736
5061.503173,-7846.182985,-592.164754,-74924.139704
5061.505748,-1924.535449,1332.370696,-75996.673402
5061.508323,5921.647536,15840.407159,-62053.735338
5061.510897,-8882.471304,0.000000,-77682.083497
5061.513472,8734.430116,5625.565159,-72932.291410
5061.516047,-5625.565159,13175.665768,-66343.870127
5061.518622,1332.370696,-740.205942,-81052.903688
5061.521197,7105.977043,8290.306550,-76303.111601
5061.523771,1924.535449,8438.347739,-79214.274493
5061.526346,-592.164754,7550.100608,-79061.055394
5061.528921,-8142.265362,7550.100608,-75230.577904
5061.531496,8290.306550,10658.965565,-75537.016103
5061.534071,-2812.782580,-1480.411884,-72166.195912
5061.536646,-7698.141797,9030.512492,-74004.825107
5061.539221,3256.906145,592.164754,-82125.437386
5061.541797,3849.070898,18653.189738,-74158.044206
5061.544372,-4441.235652,-4589.276840,-86415.572174
5061.546947,-7402.059420,16284.530724,-71706.538613
5061.549523,18357.107362,7994.224174,-76303.111601
5061.552098,-41451.532752,-28571.949361,-88254.201370
5061.554673,25611.125593,15692.365970,-59142.572446
5061.557249,-16728.654289,-13619.789333,-79061.055394
5061.559824,-18061.024985,5477.523971,-74158.044206
5061.562399,20429.683999,23390.507767,-69714.690318
5061.564975,-25463.084405,-4145.153275,-90092.830565
5061.567550,6513.812290,11547.212695,-74311.263306
5061.570125,4441.235652,14804.118840,-57916.819649
5061.572701,-15544.324782,-11547.212695,-75843.454302
5061.575276,-4589.276840,11843.295072,-62819.830836
5061.577852,-11547.212695,-3256.906145,-76762.768900
5061.580427,-14063.912898,-5921.647536,-83197.971083
5061.583002,6661.853478,19837.519246,-66343.870127
5061.585578,-1628.453072,-444.123565,-80593.246390
5061.588153,-6809.894666,5181.441594,-75383.797003
5061.590728,-2072.576638,592.164754,-77988.521696
5061.593304,-11399.171507,-9178.553681,-86875.229473
5061.595879,-3849.070898,7994.224174,-74770.920605
5061.598454,2368.659014,3552.988522,-76609.549800
5061.601030,-13323.706956,-3256.906145,-77528.864398
5061.603605,-11547.212695,3552.988522,-70327.566716
5061.606180,-6069.688724,-9474.636058,-75996.673402
5061.608756,-740.205942,-2072.576638,-77222.426198
5061.611331,296.082377,7846.182985,-74770.920605
5061.613906,-11251.130318,1036.288319,-74924.139704
5061.616482,-6069.688724,14211.954086,-68488.937521
5061.619057,-9178.553681,-5477.523971,-74158.044206
5061.621632,2368.659014,13915.871710,-64658.460031
5061.624208,5921.647536,-2664.741391,-74004.825107
5061.626783,-16728.654289,5477.523971,-71553.319513
5061.629358,6217.729913,-1776.494261,-76456.330700
5061.631934,-30200.402434,-6661.853478,-79214.274493
5061.634509,33753.390955,22946.384202,-68948.594820
5061.637084,-18653.189738,-9474.636058,-86875.229473
5061.639660,-18357.107362,-148.041188,-80593.246390
5061.642235,16876.695478,29904.320057,-62819.830836
5061.644810,-19097.313304,-14508.036463,-90092.830565
5061.647385,2368.659014,-1776.494261,-80746.465489
5061.649960,13915.871710,1332.370696,-79214.274493
5061.652535,-15100.201217,-14359.995275,-89786.392366
5061.655111,5329.482782,23834.631332,-66497.089226
5061.657686,-4441.235652,4441.235652,-74158.044206
5061.660261,3108.864956,10807.006753,-74004.825107
5061.662836,14063.912898,18209.066173,-68182.499322
5061.665411,-6809.894666,-5625.565159,-82431.875585
5061.667986,-6661.853478,10510.924376,-70327.566716
5061.670562,4589.276840,9622.677246,-70480.785816
5061.673137,-7105.977043,-4441.235652,-79673.931792
5061.675712,3108.864956,9918.759623,-67416.403824
5061.678287,8734.430116,11843.295072,-72932.291410
5061.680862,-2220.617826,3701.029710,-80286.808190
5061.683438,-1628.453072,13619.789333,-71859.757712
5061.686013,-1184.329507,3404.947333,-77069.207099
5061.688588,-5181.441594,7550.100608,-80286.808190
5061.691163,14359.995275,15988.448347,-73391.948708
5061.693738,-11103.089130,-4737.318029,-79214.274493
5061.696313,1480.411884,1332.370696,-75383.797003
5061.698889,-3997.112087,2368.659014,-74617.701505
5061.701464,4589.276840,8438.347739,-77222.426198
5061.704039,-6661.853478,3404.947333,-76149.892501
5061.706614,23538.548956,21614.013506,-68795.375720
5061.709189,-22946.384202,-10214.842000,-85649.476676
5061.711764,-17468.860231,6809.894666,-81665.780087
5061.714340,24722.878463,16136.489536,-56384.628653
5061.716915,-26351.331535,-21021.848753,-81512.560987
5061.719490,4145.153275,16284.530724,-69714.690318
5061.722065,10066.800811,11251.130318,-73391.948708
5061.724640,-23390.507767,-8290.306550,-92544.336158
5061.727215,10362.883188,14508.036463,-76609.549800
5061.729791,-16876.695478,-16136.489536,-88100.982270
5061.732366,0.000000,-8586.388927,-86568.791274
5061.734941,-444.123565,296.082377,-74924.139704
5061.737516,-22206.178260,-14804.118840,-82125.437386
5061.740091,-3404.947333,10510.924376,-68029.280222
5061.742666,3552.988522,9770.718434,-70634.004916
5061.745241,888.247130,-1332.370696,-80593.246390
5061.747816,-4737.318029,7254.018232,-74311.263306
5061.750391,-444.123565,3256.906145,-74004.825107
5061.752966,-10658.965565,-1924.535449,-79673.931792
5061.755541,-2664.741391,7846.182985,-70940.443115
5061.758116,-592.164754,2812.782580,-73085.510509
5061.760691,-8882.471304,444.123565,-76149.892501
5061.763266,-12731.542202,-1628.453072,-73545.167808
5061.765840,-6661.853478,-7698.141797,-77222.426198
5061.768415,1628.453072,1036.288319,-74311.263306
5061.770990,-4441.235652,1332.370696,-74770.920605
5061.773565,-1924.535449,4589.276840,-76149.892501
5061.776140,-16432.571912,2664.741391,-78141.740796
5061.778715,8290.306550,-444.123565,-79827.150892
5061.781290,-14952.160028,-2516.700203,-79827.150892
5061.783865,13175.665768,10658.965565,-73545.167808
5061.786440,-27239.578666,-8142.265362,-75383.797003
5061.789015,-1184.329507,14359.995275,-65118.117330
5061.791590,23094.425390,4589.276840,-72012.976812
5061.794165,-27387.619854,1924.535449,-76915.987999
5061.796740,46336.891969,41007.409187,-61287.639840
5061.799314,-40267.203245,-5181.441594,-82738.313784
5061.801889,6365.771101,13619.789333,-76762.768900
5061.804464,15248.242405,13619.789333,-66037.431928
5061.807039,-24574.837274,-14211.954086,-82891.532884
5061.809614,23834.631332,22502.260637,-64658.460031
5061.812189,-14952.160028,4589.276840,-76915.987999
5061.814764,-10807.006753,2368.659014,-82585.094684
5061.817339,17764.942608,14952.160028,-67263.184724
5061.819914,-7698.141797,3849.070898,-78907.836294
5061.822489,-148.041188,148.041188,-85036.600278
5061.825064,7698.141797,13323.706956,-70787.224015
5061.827639,-14804.118840,-3849.070898,-83044.751983
5061.830214,296.082377,1776.494261,-78141.740796
5061.832788,1924.535449,11103.089130,-73545.167808
5061.835363,-1480.411884,0.000000,-81512.560987
5061.837938,3997.112087,21614.013506,-66803.527426
5061.840513,-5773.606348,9770.718434,-72779.072310
5061.843088,-3552.988522,-1776.494261,-76762.768900
5061.845663,7254.018232,16876.695478,-68335.718422
5061.848238,-3997.112087,8586.388927,-77375.645298
5061.850812,-592.164754,5773.606348,-76149.892501
5061.853387,-1036.288319,3404.947333,-72932.291410
5061.855962,-740.205942,-2812.782580,-82278.656485
5061.858536,6957.935855,17764.942608,-72166.195912
5061.861111,-1036.288319,-5181.441594,-86568.791274
5061.863686,-13767.830521,15692.365970,-73391.948708
5061.866261,20725.766376,22058.137072,-62360.173537
5061.868835,-31976.896694,-24278.754898,-87641.324971
5061.871410,-21169.889941,-9474.636058,-80286.808190
5061.873985,18505.148550,14508.036463,-71859.757712
5061.876560,-29608.237680,-14211.954086,-86415.572174
5061.879134,17320.819043,23242.466579,-60674.763442
5061.881709,-14952.160028,10214.842000,-66650.308326
5061.884284,-12287.418637,-1332.370696,-71553.319513
5061.886858,5477.523971,17320.819043,-56844.285952
5061.889433,-8142.265362,-9178.553681,-74924.139704
5061.892008,-7550.100608,5921.647536,-77375.645298
5061.894583,-6217.729913,8734.430116,-68795.375720
5061.897157,-5477.523971,-9326.594869,-85343.038477
5061.899732,-5033.400406,7550.100608,-77069.207099
5061.902307,10214.842000,10066.800811,-74617.701505
5061.904882,-15544.324782,-5921.647536,-80746.465489
5061.907456,592.164754,5921.647536,-71400.100414
5061.910031,-5181.441594,2960.823768,-72779.072310
5061.912606,-6809.894666,-1036.288319,-77375.645298
5061.915180,-4737.318029,7846.182985,-69408.252119
5061.917755,-14211.954086,-6957.935855,-74617.701505
5061.920330,-7698.141797,444.123565,-71553.319513
5061.922905,3997.112087,-1036.288319,-73238.729609
5061.925479,-15692.365970,-1628.453072,-76303.111601
5061.928054,-3108.864956,13471.748144,-70940.443115
5061.930629,-15248.242405,-1480.411884,-74311.263306
5061.933204,3404.947333,14359.995275,-69255.033019
5061.935778,444.123565,-4145.153275,-76149.892501
5061.938353,-5921.647536,10658.965565,-67722.842023
5061.940928,-6809.894666,-8586.388927,-74924.139704
5061.943502,-18949.272115,3108.864956,-67876.061123
5061.946077,26351.331535,17912.983796,-70174.347617
5061.948623,-29312.155303,-6069.688724,-84883.381178
5061.951168,34345.555709,34049.473332,-66190.651027
5061.953713,-10658.965565,5181.441594,-79673.931792
5061.956259,-15248.242405,-592.164754,-77528.864398
5061.958804,14211.954086,22058.137072,-59295.791545
5061.961350,-21021.848753,-14063.912898,-77375.645298
5061.963895,14063.912898,19837.519246,-72319.415011
5061.966440,13767.830521,29460.196492,-59602.229744
5061.968986,-11251.130318,-444.123565,-79673.931792
5061.971531,8586.388927,12731.542202,-75077.358804
5061.974077,2072.576638,9030.512492,-76609.549800
5061.976622,-3404.947333,-4737.318029,-87028.448573
5061.979168,888.247130,12879.583391,-72319.415011
5061.981713,-6069.688724,-5773.606348,-84117.285680
5061.984258,-4737.318029,1776.494261,-77682.083497
5061.986804,2220.617826,7402.059420,-70787.224015
5061.989349,-1036.288319,6809.894666,-79367.493593
5061.991895,3552.988522,17024.736666,-73391.948708
5061.994440,-5625.565159,7254.018232,-74924.139704
5061.996985,0.000000,4885.359217,-75843.454302
5061.999531,-2516.700203,13767.830521,-74158.044206
5062.002076,5477.523971,2812.782580,-76303.111601
5062.004622,-8290.306550,3849.070898,-79827.150892
5062.007167,-444.123565,-148.041188,-80133.589091
5062.009712,11399.171507,10362.883188,-76456.330700
5062.012258,-8142.265362,-8882.471304,-87794.544071
5062.014803,-2812.782580,20873.807564,-71400.100414
5062.017349,14063.912898,8438.347739,-77528.864398
5062.019894,-38934.832549,-21465.972318,-82891.532884
5062.022439,32421.020260,15544.324782,-57303.943250
5062.024985,-25315.043216,-14508.036463,-74770.920605
5062.027530,-7550.100608,4589.276840,-73698.386908
5062.030076,12139.377449,20281.642811,-69714.690318
5062.032621,-22354.219448,-9474.636058,-92850.774358
5062.035167,-7402.059420,3108.864956,-71859.757712
5062.037712,2812.782580,13767.830521,-63126.269035
5062.040257,-13915.871710,-10214.842000,-79827.150892
5062.042803,740.205942,7994.224174,-68795.375720
5062.045348,-15544.324782,-740.205942,-73391.948708
5062.047894,-11843.295072,-4589.276840,-76762.768900
5062.050444,3108.864956,15100.201217,-66190.651027
5062.052995,-3108.864956,444.123565,-79214.274493
5062.055546,-4589.276840,2220.617826,-74311.263306
5062.058096,-6513.812290,6957.935855,-70480.785816
5062.060647,-6513.812290,-888.247130,-75077.358804
5062.063198,-5625.565159,3849.070898,-71246.881314
5062.065748,-6957.935855,-1628.453072,-76303.111601
5062.068299,-3701.029710,-5329.482782,-77528.864398
5062.070850,-6365.771101,148.041188,-78141.740796
5062.073400,-3997.112087,-1480.411884,-76303.111601
5062.075951,-6217.729913,-6217.729913,-77375.645298
5062.078502,-8882.471304,5921.647536,-75843.454302
5062.081052,3108.864956,-4737.318029,-79827.150892
5062.083603,-11103.089130,9030.512492,-71093.662214
5062.086154,14952.160028,-592.164754,-76303.111601
5062.088704,-23982.672521,3552.988522,-71553.319513
5062.091255,14211.954086,-1184.329507,-77988.521696
5062.093806,-30940.608376,-13915.871710,-87488.105872
5062.096356,29756.278868,24426.796086,-69867.909418
5062.098907,296.082377,-8290.306550,-87641.324971
5062.101458,-10955.047942,12731.542202,-72012.976812
5062.104008,24130.713709,24426.796086,-65424.555529
5062.106559,-17468.860231,-13175.665768,-85036.600278
5062.109110,-9770.718434,-6365.771101,-85496.257577
5062.111660,22206.178260,1184.329507,-80133.589091
5062.114211,-13915.871710,-16136.489536,-94842.622652
5062.116761,2368.659014,18061.024985,-73085.510509
5062.119312,-444.123565,11695.253884,-69408.252119
5062.121863,-7105.977043,5477.523971,-77222.426198
5062.124413,17320.819043,16284.530724,-66497.089226
5062.126964,-3849.070898,-592.164754,-74770.920605
5062.129515,-5477.523971,6661.853478,-73391.948708
5062.132065,11695.253884,8142.265362,-72319.415011
5062.134616,-15396.283594,1184.329507,-75996.673402
5062.137167,9474.636058,10214.842000,-70327.566716
5062.139717,-2812.782580,5773.606348,-76915.987999
5062.142268,888.247130,6513.812290,-79673.931792
5062.144819,12879.583391,14656.077652,-75690.235202
5062.147369,-8734.430116,4145.153275,-76762.768900
5062.149920,-740.205942,3849.070898,-74464.482406
5062.152475,2220.617826,8734.430116,-70021.128517
5062.155031,-9326.594869,-1036.288319,-77835.302597
5062.157586,18653.189738,15692.365970,-72166.195912
5062.160141,-11695.253884,-7698.141797,-84576.942979
5062.162697,-2664.741391,22946.384202,-72012.976812
5062.165252,16284.530724,5773.606348,-77069.207099
5062.167807,-41599.573940,-23242.466579,-87334.886772
5062.170362,36270.091158,15544.324782,-59602.229744
5062.172918,-31384.731941,-18505.148550,-78141.740796
5062.175473,-9622.677246,5033.400406,-75230.577904
5062.178028,25611.125593,26055.249158,-64198.802732
5062.180583,-22058.137072,3552.988522,-76762.768900
5062.183139,-6957.935855,5477.523971,-74770.920605
5062.185694,6809.894666,8882.471304,-64505.240932
5062.188249,-24722.878463,-15100.201217,-83044.751983
5062.190805,11399.171507,8734.430116,-70174.347617
5062.193360,-17024.736666,-1628.453072,-76609.549800
5062.195915,-17172.777854,-592.164754,-76303.111601
5062.198470,5477.523971,14211.954086,-63892.364533
5062.201026,-11547.212695,-592.164754,-78754.617194
5062.203581,-1628.453072,444.123565,-77835.302597
5062.206136,-7402.059420,9326.594869,-70787.224015
5062.208692,-9474.636058,-2664.741391,-81512.560987
5062.211247,-6069.688724,-148.041188,-74924.139704
5062.213802,-4737.318029,4441.235652,-67722.842023
5062.216357,-1036.288319,-2664.741391,-75383.797003
5062.218913,-5625.565159,6069.688724,-70021.128517
5062.221468,-11991.336260,-4145.153275,-75843.454302
5062.224023,-2812.782580,3849.070898,-74464.482406
5062.226578,-14804.118840,-296.082377,-74464.482406
5062.229134,6069.688724,13027.624579,-69255.033019
5062.231689,-9918.759623,-592.164754,-75077.358804
5062.234244,-2664.741391,16580.613101,-68335.718422
5062.236800,-9770.718434,-10807.006753,-76149.892501
5062.239355,-15396.283594,7550.100608,-66037.431928
5062.241910,33753.390955,7994.224174,-72472.634111
5062.244465,-33309.267390,-4145.153275,-82125.437386
5062.247021,33605.349767,36714.214723,-64505.240932
5062.249576,-18801.230927,15840.407159,-70327.566716
5062.252131,-23094.425390,-10807.006753,-81512.560987
5062.254689,19393.395680,21465.972318,-63585.926334
5062.257248,-19393.395680,-7698.141797,-72932.291410
5062.259806,-6513.812290,6957.935855,-71093.662214
5062.262364,24130.713709,22206.178260,-62973.049936
5062.264923,-14211.954086,-5773.606348,-85955.914876
5062.267481,7105.977043,13619.789333,-77375.645298
5062.270040,2220.617826,5773.606348,-75843.454302
5062.272598,-16136.489536,-5181.441594,-85955.914876
5062.275156,9770.718434,12435.459826,-71246.881314
5062.277715,-3849.070898,-888.247130,-81206.122788
5062.280273,-2960.823768,1628.453072,-81512.560987
5062.282832,11991.336260,15100.201217,-67416.403824
5062.285390,1924.535449,13619.789333,-69561.471218
5062.287948,-592.164754,4293.194464,-82585.094684
5062.290507,8586.388927,19393.395680,-72166.195912
5062.293065,-11103.089130,-2664.741391,-83044.751983
5062.295623,-2664.741391,1184.329507,-80133.589091
5062.298182,4293.194464,7994.224174,-73238.729609
5062.300740,-1036.288319,740.205942,-79980.369991
5062.303299,-3256.906145,13175.665768,-73085.510509
5062.305857,15988.448347,16284.530724,-68948.594820
5062.308415,-25315.043216,-10362.883188,-82125.437386
5062.310974,22058.137072,21317.931130,-61594.078039
5062.313532,-12879.583391,-14063.912898,-80746.465489
5062.316090,-29756.278868,-13767.830521,-80440.027290
5062.318649,19541.436869,18801.230927,-66190.651027
5062.321207,-23982.672521,-6365.771101,-77528.864398
5062.323766,-2516.700203,3256.906145,-76609.549800
5062.326324,9178.553681,23094.425390,-62819.830836
5062.328882,-18801.230927,-18357.107362,-83504.409282
5062.331441,2516.700203,2960.823768,-67569.622924
5062.333999,-4145.153275,-1628.453072,-69561.471218
5062.336558,-12879.583391,-3849.070898,-79061.055394
5062.339116,-2368.659014,14804.118840,-67109.965625
5062.341674,-3404.947333,-5477.523971,-85802.695776
5062.344233,-10510.924376,-740.205942,-80899.684589
5062.346791,-3997.112087,9178.553681,-69867.909418
5062.349349,-7846.182985,-4589.276840,-80746.465489
5062.351908,-3701.029710,6069.688724,-74924.139704
5062.354466,-10510.924376,2960.823768,-74464.482406
5062.357027,-9326.594869,-6809.894666,-78294.959896
5062.359589,3404.947333,2960.823768,-73698.386908
5062.362150,-4589.276840,3256.906145,-72012.976812
5062.364711,-15248.242405,-6069.688724,-77375.645298
5062.367272,-7698.141797,6809.894666,-72932.291410
5062.369834,-9474.636058,-5921.647536,-78141.740796
5062.372395,3404.947333,15692.365970,-68182.499322
5062.374956,-888.247130,-3108.864956,-76609.549800
5062.377517,-10807.006753,14211.954086,-67569.622924
5062.380078,-1332.370696,-11547.212695,-76915.987999
5062.382640,-19541.436869,2664.741391,-70174.347617
5062.385201,29608.237680,14952.160028,-71093.662214
5062.387762,-31236.690752,-8586.388927,-84730.162079
5062.390323,-5033.400406,16136.489536,-72472.634111
5062.392885,15248.242405,22206.178260,-67109.965625
5062.395446,-14508.036463,-13767.830521,-83351.190182
5062.398007,14952.160028,17024.736666,-64658.460031
5062.400568,-7550.100608,-5921.647536,-72932.291410
5062.403130,-11251.130318,3256.906145,-70327.566716
5062.405691,17616.901420,26943.496289,-61594.078039
5062.408252,-5033.400406,-3256.906145,-82585.094684
5062.410813,1480.411884,11843.295072,-78601.398095
5062.413374,6661.853478,10362.883188,-75230.577904
5062.415936,-11251.130318,-3701.029710,-85343.038477
5062.418497,1628.453072,11547.212695,-72012.976812
5062.421058,7105.977043,3849.070898,-75690.235202
5062.423619,-12287.418637,1332.370696,-78141.740796
5062.426181,592.164754,10214.842000,-72319.415011
5062.428742,2664.741391,11547.212695,-70787.224015
5062.431303,4293.194464,12139.377449,-77988.521696
5062.433864,-1184.329507,12139.377449,-73545.167808
5062.436425,-5181.441594,1036.288319,-77069.207099
5062.438989,-7254.018232,4885.359217,-78754.617194
5062.441552,4145.153275,1332.370696,-79214.274493
5062.444115,9178.553681,13027.624579,-77835.302597
5062.446678,-6809.894666,-8142.265362,-86722.010374
5062.449241,2812.782580,25315.043216,-67569.622924
5062.451804,-592.164754,-3108.864956,-81512.560987
5062.454367,-34197.514520,-9918.759623,-77222.426198
5062.456930,26647.413912,12583.501014,-61134.420740
5062.459493,-9770.718434,-7846.182985,-75230.577904
5062.462056,-25907.207970,-592.164754,-77988.521696
5062.464619,18949.272115,24130.713709,-70327.566716
5062.467182,-19245.354492,-9326.594869,-90858.926063
5062.469745,1628.453072,13619.789333,-77069.207099
5062.472308,-444.123565,-3849.070898,-79367.493593
5062.474871,-22946.384202,-24722.878463,-91012.145162
5062.477434,9030.512492,5773.606348,-73698.386908
5062.479997,-11843.295072,-2812.782580,-80593.246390
5062.482560,-6957.935855,4293.194464,-76303.111601
5062.485123,1628.453072,14656.077652,-60521.544342
5062.487686,-8586.388927,-1184.329507,-73085.510509
5062.490249,-444.123565,11843.295072,-65884.212828
5062.492812,-444.123565,1776.494261,-70634.004916
5062.495375,-17172.777854,2220.617826,-74311.263306
5062.497938,2368.659014,296.082377,-76762.768900
5062.500501,-5921.647536,-2220.617826,-76915.987999
5062.503064,-7402.059420,-3701.029710,-79520.712692
5062.505627,-4293.194464,-4885.359217,-74004.825107
5062.508190,-11103.089130,296.082377,-75690.235202
5062.510753,-11547.212695,-3849.070898,-75996.673402
5062.513316,9326.594869,14508.036463,-66803.527426
5062.515879,-9918.759623,2220.617826,-74464.482406
5062.518442,-296.082377,16432.571912,-61900.516238
5062.521005,-10066.800811,-12435.459826,-74311.263306
5062.523568,-15544.324782,4737.318029,-67109.965625
5062.526131,35085.761651,14063.912898,-68488.937521
5062.528694,-39230.914926,-6365.771101,-85036.600278
5062.531257,5477.523971,21169.889941,-72472.634111
5062.533820,21910.095883,23686.590144,-67109.965625
5062.536383,-21762.054695,-11399.171507,-81359.341888
5062.538946,23834.631332,16876.695478,-62360.173537
5062.541511,-20577.725188,-7402.059420,-71859.757712
5062.544076,-5773.606348,3997.112087,-72319.415011
5062.546640,20873.807564,24130.713709,-62819.830836
5062.549205,-11547.212695,-1628.453072,-85036.600278
5062.551770,9030.512492,13175.665768,-77835.302597
5062.554334,-1184.329507,9474.636058,-72932.291410
5062.556899,-13471.748144,-6661.853478,-85343.038477
5062.559464,3552.988522,8882.471304,-71553.319513
5062.562028,-2072.576638,6217.729913,-76149.892501
5062.564593,2220.617826,444.123565,-80440.027290
5062.567158,7846.182985,10658.965565,-72319.415011
5062.569722,1776.494261,12731.542202,-75690.235202
5062.572287,5921.647536,12435.459826,-79520.712692
5062.574852,-10658.965565,7254.018232,-74158.044206
5062.577416,148.041188,-5181.441594,-80899.684589
5062.579981,-6217.729913,5625.565159,-75230.577904
5062.582546,9770.718434,7254.018232,-76915.987999
5062.585110,-7254.018232,14211.954086,-74464.482406
5062.587675,13619.789333,15248.242405,-73391.948708
5062.590240,-22798.343014,-4293.194464,-77222.426198
5062.592804,25167.002028,18505.148550,-60521.544342
5062.595369,-27387.619854,-19393.395680,-81052.903688
5062.597934,-20429.683999,-9030.512492,-76762.768900
5062.600498,13323.706956,14211.954086,-67722.842023
5062.603063,-29312.155303,-7846.182985,-78141.740796
5062.605628,7402.059420,5921.647536,-72779.072310
5062.608192,5477.523971,21910.095883,-61440.858940
5062.610757,-20133.601622,-12139.377449,-78907.836294
5062.613322,444.123565,9030.512492,-58836.134246
5062.615886,-7846.182985,-7105.977043,-69255.033019
5062.618451,-6809.894666,-5033.400406,-79367.493593
5062.621016,-1776.494261,18209.066173,-68182.499322
5062.623580,-6217.729913,-9030.512492,-84576.942979
5062.626145,-9770.718434,4885.359217,-75537.016103
5062.628710,-1480.411884,5181.441594,-75537.016103
5062.631274,-8734.430116,-6513.812290,-84423.723880
5062.633839,-2516.700203,4441.235652,-78294.959896
5062.636404,-11399.171507,-2516.700203,-79520.712692
5062.638968,-7550.100608,-4145.153275,-76915.987999
5062.641533,-3701.029710,2072.576638,-70787.224015
5062.644099,-9326.594869,-7698.141797,-74004.825107
5062.646665,-10066.800811,6069.688724,-71706.538613
5062.649232,-10066.800811,-1924.535449,-74004.825107
5062.651798,1924.535449,9326.594869,-71706.538613
5062.654364,1924.535449,6069.688724,-75077.358804
5062.656930,-8734.430116,9326.594869,-70940.443115
5062.659497,148.041188,-10955.047942,-77682.083497
5062.662063,-21614.013506,-4441.235652,-72625.853210
5062.664629,33901.432144,16284.530724,-70634.004916
5062.667195,-37454.420665,-5625.565159,-84576.942979
5062.669762,32569.061448,28127.825796,-69255.033019
5062.672328,-3256.906145,12435.459826,-62513.392637
5062.674894,-18653.189738,-4885.359217,-80133.589091
5062.677460,16284.530724,10955.047942,-67109.965625
5062.680027,-11399.171507,-5033.400406,-70021.128517
5062.682593,-9622.677246,0.000000,-75230.577904
5062.685159,16432.571912,22354.219448,-66956.746525
5062.687725,-7105.977043,4293.194464,-85036.600278
5062.690292,5181.441594,7105.977043,-82738.313784
5062.692858,-2220.617826,12731.542202,-70480.785816
5062.695424,-7698.141797,-7698.141797,-84883.381178
5062.697990,-3404.947333,4737.318029,-74617.701505
5062.700557,4589.276840,14952.160028,-68488.937521
5062.703123,3701.029710,4293.194464,-77528.864398
5062.705689,-1776.494261,9030.512492,-75843.454302
5062.708255,6513.812290,20133.601622,-73391.948708
5062.710822,-7105.977043,-2664.741391,-80440.027290
5062.713388,-7105.977043,1332.370696,-74004.825107
5062.715954,10066.800811,5181.441594,-72012.976812
5062.718520,-2516.700203,2220.617826,-74617.701505
5062.721087,740.205942,23686.590144,-70327.566716
5062.723653,9770.718434,7846.182985,-79827.150892
5062.726219,-30052.361245,8882.471304,-72012.976812
5062.728785,38934.832549,15100.201217,-65730.993728
5062.731352,-44412.356520,-34049.473332,-90092.830565
5062.733918,-2220.617826,7994.224174,-69101.813920
5062.736484,6809.894666,2368.659014,-75537.016103
5062.739050,-40711.326810,-7994.224174,-84576.942979
5062.741616,26055.249158,22058.137072,-68335.718422
5062.744183,-15988.448347,-1924.535449,-81512.560987
5062.746750,-28868.031738,-592.164754,-72319.415011
5062.749318,9474.636058,15988.448347,-58376.476948
5062.751885,-13915.871710,-12879.583391,-75230.577904
5062.754453,-9918.759623,-1184.329507,-77069.207099
5062.757020,4885.359217,13915.871710,-67876.061123
5062.759588,-20873.807564,-7994.224174,-85649.476676
5062.762155,1924.535449,3108.864956,-76149.892501
5062.764723,-1776.494261,6365.771101,-76303.111601
5062.767290,-8734.430116,-2072.576638,-83810.847481
5062.769858,2072.576638,2960.823768,-73545.167808
5062.772425,-13915.871710,-888.247130,-75230.577904
5062.774993,-2072.576638,-1332.370696,-73851.606007
5062.777560,-9770.718434,3108.864956,-68642.156621
5062.780128,-7254.018232,-8882.471304,-78601.398095
5062.782695,-6513.812290,-888.247130,-77069.207099
5062.785263,592.164754,1036.288319,-75077.358804
5062.787830,-10658.965565,4885.359217,-78601.398095
5062.790398,10807.006753,1036.288319,-80593.246390
5062.792965,-25611.125593,4145.153275,-79673.931792
5062.795533,22798.343014,-1924.535449,-81972.218286
5062.798100,-39675.038491,-13027.624579,-84423.723880
5062.800668,33901.432144,22502.260637,-69408.252119
5062.803235,-3849.070898,-7254.018232,-83197.971083
5062.805803,-10362.883188,11103.089130,-73851.606007
5062.808370,28423.908173,28868.031738,-61440.858940
5062.810938,-20281.642811,-6069.688724,-82125.437386
5062.813505,11399.171507,10510.924376,-72625.853210
5062.816073,-1924.535449,5181.441594,-72932.291410
5062.818640,-20725.766376,-9178.553681,-85343.038477
5062.821208,12139.377449,19393.395680,-67416.403824
5062.823776,10066.800811,23982.672521,-65271.336430
5062.826343,-6069.688724,-1924.535449,-84730.162079
5062.828911,3256.906145,8290.306550,-65730.993728
5062.831478,-6069.688724,10362.883188,-66803.527426
5062.834046,-1480.411884,-1332.370696,-81359.341888
5062.836613,7105.977043,8734.430116,-72932.291410
5062.839181,5921.647536,7402.059420,-77222.426198
5062.841748,6365.771101,9178.553681,-77528.864398
5062.844316,-3849.070898,16284.530724,-74464.482406
5062.846883,1036.288319,-1628.453072,-83044.751983
5062.849451,-5329.482782,-1036.288319,-77222.426198
5062.852019,-1036.288319,592.164754,-77222.426198
5062.854587,18209.066173,10807.006753,-73391.948708
5062.857155,-18801.230927,1332.370696,-77835.302597
5062.859723,16580.613101,29164.114115,-67569.622924
5062.862291,-9030.512492,-8734.430116,-83044.751983
5062.864859,-34345.555709,888.247130,-71553.319513
5062.867427,30940.608376,9918.759623,-63126.269035
5062.869995,-49297.715737,-29016.072926,-85649.476676
5062.872563,30644.525999,13619.789333,-67876.061123
5062.875131,-11991.336260,2664.741391,-71706.538613
5062.877699,-16432.571912,-592.164754,-78907.836294
5062.880267,23094.425390,24426.796086,-63432.707234
5062.882835,-28868.031738,-18505.148550,-84883.381178
5062.885403,-2072.576638,-2220.617826,-71859.757712
5062.887971,4293.194464,-740.205942,-66956.746525
5062.890539,-20429.683999,-4145.153275,-81359.341888
5062.893107,-1184.329507,9030.512492,-76303.111601
5062.895675,1332.370696,9770.718434,-67876.061123
5062.898243,-19689.478057,-5033.400406,-79673.931792
5062.900811,10214.842000,14952.160028,-64045.583633
5062.903379,-10807.006753,-2516.700203,-75690.235202
5062.905947,-10214.842000,-2072.576638,-74004.825107
5062.908515,-296.082377,9918.759623,-63892.364533
5062.911083,-23982.672521,-9918.759623,-80746.465489
5062.913651,7254.018232,-2516.700203,-76915.987999
5062.916219,-9918.759623,5033.400406,-75077.358804
5062.918787,-9770.718434,-10658.965565,-82431.875585
5062.921355,888.247130,15100.201217,-66497.089226
5062.923923,-3256.906145,-5329.482782,-77528.864398
5062.926491,-28571.949361,-3404.947333,-82738.313784
5062.929059,23390.507767,12731.542202,-74311.263306
5062.931627,-39971.120868,-18801.230927,-90552.487864
5062.934195,29312.155303,19245.354492,-67722.842023
5062.936763,2960.823768,148.041188,-79827.150892
5062.939331,-13323.706956,3701.029710,-76149.892501
5062.941899,25907.207970,34493.596897,-60521.544342
5062.944467,-15248.242405,-3849.070898,-83044.751983
5062.947035,6217.729913,7105.977043,-74158.044206
5062.949603,0.000000,1332.370696,-68182.499322
5062.952171,-14359.995275,-9030.512492,-78601.398095
5062.954740,15396.283594,19245.354492,-66497.089226
5062.957308,1184.329507,11399.171507,-78754.617194
5062.959877,-444.123565,-5329.482782,-84883.381178
5062.962445,-2664.741391,8586.388927,-66803.527426
5062.965014,-1924.535449,6957.935855,-67876.061123
5062.967582,-3404.947333,444.123565,-77375.645298
5062.970151,8142.265362,12435.459826,-70940.443115
5062.972719,10510.924376,7402.059420,-79980.369991
5062.975288,-3849.070898,15100.201217,-79367.493593
5062.977856,-3552.988522,12435.459826,-76609.549800
5062.980425,-2368.659014,-2960.823768,-80440.027290
5062.982993,148.041188,8882.471304,-70634.004916
5062.985562,4145.153275,-2960.823768,-77682.083497
5062.988130,2664.741391,15544.324782,-76456.330700
5062.990699,-1332.370696,2368.659014,-84423.723880
5062.993268,-16284.530724,16876.695478,-73698.386908
5062.995836,29608.237680,20281.642811,-63585.926334
5062.998405,-29756.278868,-27683.702231,-86262.353075
5063.000973,-19393.395680,-1332.370696,-77222.426198
5063.003542,7254.018232,6069.688724,-75843.454302
5063.006110,-22798.343014,-13175.665768,-88100.982270
5063.008679,12435.459826,22354.219448,-68795.375720
5063.011247,-9178.553681,4885.359217,-75690.235202
5063.013816,-17616.901420,8142.265362,-75230.577904
5063.016384,6957.935855,7698.141797,-67876.061123
5063.018953,-23686.590144,-24130.713709,-83197.971083
5063.021521,296.082377,3997.112087,-70940.443115
5063.024090,1628.453072,13767.830521,-67109.965625
5063.026658,-12139.377449,0.000000,-76303.111601
5063.029227,2072.576638,9918.759623,-62360.173537
5063.031795,-4737.318029,-3256.906145,-72012.976812
5063.034364,-11251.130318,-4145.153275,-84423.723880
5063.036932,3108.864956,888.247130,-79214.274493
5063.039501,-10807.006753,-4737.318029,-80286.808190
5063.042069,-18061.024985,-4441.235652,-76609.549800
5063.044638,1628.453072,-1924.535449,-71246.881314
5063.047206,-11695.253884,-740.205942,-75537.016103
5063.049775,888.247130,444.123565,-72319.415011
5063.052343,-3701.029710,12731.542202,-67263.184724
5063.054912,-3552.988522,1332.370696,-75690.235202
5063.057481,-592.164754,14211.954086,-64964.898230
5063.060050,296.082377,-12583.501014,-78141.740796
5063.062619,-23390.507767,-444.123565,-73238.729609
5063.065188,33901.432144,19393.395680,-65577.774629
5063.067757,-41451.532752,-13619.789333,-83197.971083
5063.070326,-4737.318029,11695.253884,-74924.139704
5063.072896,24130.713709,27683.702231,-65424.555529
5063.075465,-14211.954086,-6365.771101,-83964.066581
5063.078034,13767.830521,10955.047942,-70021.128517
5063.080603,-12287.418637,-444.123565,-68795.375720
5063.083172,-10510.924376,-7105.977043,-77988.521696
5063.085741,16580.613101,14952.160028,-70174.347617
5063.088310,-888.247130,7402.059420,-82278.656485
5063.090879,-1480.411884,9918.759623,-77835.302597
5063.093448,-592.164754,14211.954086,-67722.842023
5063.096017,-6217.729913,-5477.523971,-82278.656485
5063.098586,-3404.947333,5181.441594,-75383.797003
5063.101155,7994.224174,11843.295072,-74464.482406
5063.103724,2220.617826,4737.318029,-76762.768900
5063.106293,-7254.018232,13175.665768,-72319.415011
5063.108862,-4441.235652,13471.748144,-69408.252119
5063.111431,2072.576638,-4441.235652,-78601.398095
5063.114000,-7846.182985,6809.894666,-70940.443115
5063.116569,17764.942608,6661.853478,-74617.701505
5063.119138,-16432.571912,2960.823768,-77375.645298
5063.121707,12139.377449,28275.866984,-67876.061123
5063.124276,-8882.471304,-8438.347739,-85496.257577
5063.126845,-26055.249158,3552.988522,-70940.443115
5063.129414,22502.260637,11103.089130,-62973.049936
5063.131984,-40415.244433,-30792.567187,-86568.791274
5063.134553,20577.725188,13767.830521,-65730.993728
5063.137122,-13915.871710,-1036.288319,-73698.386908
5063.139691,-12287.418637,2220.617826,-74311.263306
5063.142260,15544.324782,25611.125593,-63126.269035
5063.144829,-17320.819043,-13619.789333,-85955.914876
5063.147398,-23686.590144,-17912.983796,-83964.066581
5063.149967,8142.265362,3404.947333,-67722.842023
5063.152536,-8438.347739,-2368.659014,-79061.055394
5063.155105,-6661.853478,9178.553681,-75996.673402
5063.157674,3997.112087,2812.782580,-74311.263306
5063.160242,-20281.642811,-5033.400406,-79673.931792
5063.162811,5477.523971,9474.636058,-66803.527426
5063.165380,-5773.606348,148.041188,-75383.797003
5063.167949,-6957.935855,-5181.441594,-79980.369991
5063.170518,-7698.141797,-1924.535449,-71093.662214
5063.173086,-13471.748144,-9918.759623,-80899.684589
5063.175655,0.000000,1184.329507,-75843.454302
5063.178224,-4145.153275,1036.288319,-71553.319513
5063.180793,-11695.253884,6661.853478,-75537.016103
5063.183362,5329.482782,3256.906145,-76456.330700
5063.185930,-15544.324782,8142.265362,-69101.813920
5063.188499,13619.789333,-9770.718434,-83504.409282
5063.191068,-28719.990550,-7550.100608,-81972.218286
5063.193637,29460.196492,22650.301825,-69408.252119
5063.196206,-24574.837274,-12139.377449,-87334.886772
5063.198774,9770.718434,23982.672521,-67416.403824
5063.201343,18061.024985,20281.642811,-70021.128517
5063.203912,-15248.242405,-6661.853478,-77069.207099
5063.206481,12731.542202,22798.343014,-60521.544342
5063.209050,-13619.789333,-1332.370696,-69101.813920
5063.211618,-7550.100608,0.000000,-74004.825107
5063.214187,14952.160028,11547.212695,-71246.881314
5063.216756,-2516.700203,1480.411884,-81206.122788
5063.219325,-444.123565,6365.771101,-84117.285680
5063.221893,1628.453072,10807.006753,-67416.403824
5063.224462,-5181.441594,-4589.276840,-77528.864398
5063.227031,-5033.400406,7846.182985,-75077.358804
5063.229600,23982.672521,11399.171507,-73851.606007
5063.232169,-8734.430116,12583.501014,-76456.330700
5063.234737,4885.359217,14656.077652,-70327.566716
5063.237306,-9178.553681,4737.318029,-73391.948708
5063.239875,1628.453072,5921.647536,-76456.330700
5063.242444,5477.523971,2960.823768,-72932.291410
5063.245013,7402.059420,3997.112087,-78907.836294
5063.247581,-10510.924376,4589.276840,-79673.931792
5063.250150,17468.860231,22354.219448,-69408.252119
5063.252719,-26499.372724,-1480.411884,-82585.094684
5063.255288,-26647.413912,-17468.860231,-80133.589091
5063.257857,27387.619854,13619.789333,-55771.752254
5063.260427,-39526.997303,-22650.301825,-79520.712692
5063.262996,6809.894666,9622.677246,-70480.785816
5063.265565,4293.194464,7402.059420,-75383.797003
5063.268133,-18653.189738,-11991.336260,-87947.763170
5063.270702,21910.095883,21021.848753,-72166.195912
5063.273271,-25611.125593,-13323.706956,-87028.448573
5063.275840,-5477.523971,-10955.047942,-79520.712692
5063.278409,-2072.576638,4737.318029,-66190.651027
5063.280978,-9030.512492,-6661.853478,-81512.560987
5063.283546,-2072.576638,9918.759623,-73391.948708
5063.286115,-2960.823768,7402.059420,-70480.785816
5063.288684,-6365.771101,-2812.782580,-73545.167808
5063.291253,-10658.965565,1628.453072,-72472.634111
5063.293822,-1480.411884,4293.194464,-72779.072310
5063.296390,-8290.306550,-11103.089130,-81206.122788
5063.298959,-12139.377449,-5033.400406,-74004.825107
5063.301528,-1480.411884,592.164754,-74617.701505
5063.304097,-15248.242405,-888.247130,-76915.987999
5063.306666,7698.141797,11103.089130,-73238.729609
5063.309234,-15840.407159,592.164754,-78754.617194
5063.311803,5329.482782,13915.871710,-72472.634111
5063.314372,-27091.537477,-10362.883188,-77528.864398
5063.316941,18801.230927,14508.036463,-68795.375720
5063.319510,-15692.365970,-9178.553681,-82125.437386
5063.322078,-2664.741391,11547.212695,-70787.224015
5063.324647,35233.802839,36122.049970,-64964.898230
5063.327216,-28423.908173,1036.288319,-86875.229473
5063.329785,11399.171507,13323.706956,-80440.027290
5063.332354,10066.800811,14063.912898,-73545.167808
5063.334923,-13915.871710,-18061.024985,-89633.173266
5063.337491,0.000000,10214.842000,-72779.072310
5063.340060,-12731.542202,-2368.659014,-77988.521696
5063.342629,1184.329507,8142.265362,-76149.892501
5063.345198,15100.201217,28571.949361,-63892.364533
5063.347767,-1924.535449,-4145.153275,-81359.341888
5063.350335,-8438.347739,7846.182985,-68948.594820
5063.352904,7105.977043,9178.553681,-69408.252119
5063.355473,-3256.906145,444.123565,-81665.780087
5063.358042,12879.583391,21021.848753,-71706.538613
5063.360611,-1776.494261,6661.853478,-78601.398095
5063.363179,-8882.471304,296.082377,-79520.712692
5063.365747,6365.771101,13471.748144,-72625.853210
5063.368316,888.247130,-4885.359217,-79827.150892
5063.370884,11103.089130,6217.729913,-77682.083497
5063.373452,-7402.059420,592.164754,-77682.083497
5063.376020,3849.070898,20133.601622,-72779.072310
5063.378589,-7402.059420,-5033.400406,-84576.942979
5063.381157,-21614.013506,-740.205942,-73851.606007
5063.383725,17468.860231,9770.718434,-67263.184724
5063.386294,-32124.937883,-23982.672521,-83657.628382
5063.388862,18949.272115,10807.006753,-64198.802732
5063.391430,-19985.560434,2220.617826,-70634.004916
5063.393999,-5773.606348,-2664.741391,-72932.291410
5063.396567,11695.253884,22502.260637,-76456.330700
5063.399135,-18357.107362,-9474.636058,-85649.476676
5063.401703,-11399.171507,-15100.201217,-83810.847481
5063.404272,-2664.741391,3701.029710,-69714.690318
5063.406840,296.082377,-3552.988522,-81359.341888
5063.409408,-9474.636058,3849.070898,-77069.207099
5063.411977,7105.977043,7994.224174,-70021.128517
5063.414545,-9326.594869,-4293.194464,-75383.797003
5063.417113,-9622.677246,9178.553681,-67416.403824
5063.419682,-2220.617826,888.247130,-71093.662214
5063.422250,-18209.066173,-8142.265362,-74004.825107
5063.424818,3108.864956,-4589.276840,-72779.072310
5063.427386,-6217.729913,0.000000,-73085.510509
5063.429955,-12583.501014,1776.494261,-74311.263306
5063.432523,2960.823768,15692.365970,-68795.375720
5063.435091,-4441.235652,-3256.906145,-76762.768900
5063.437660,-7698.141797,13767.830521,-66650.308326
5063.440228,9770.718434,-15544.324782,-75383.797003
5063.442796,-30200.402434,4589.276840,-68029.280222
5063.445365,35381.844028,18949.272115,-70327.566716
5063.447933,-38638.750172,-8438.347739,-86875.229473
5063.450501,35233.802839,34493.596897,-67569.622924
5063.453070,-888.247130,10510.924376,-78601.398095
5063.455638,-21169.889941,2960.823768,-78141.740796
5063.458206,20281.642811,21021.848753,-65730.993728
5063.460774,-14656.077652,-11547.212695,-80286.808190
5063.463343,2220.617826,5773.606348,-75843.454302
5063.465911,3108.864956,12139.377449,-73545.167808
5063.468479,-7105.977043,5181.441594,-82431.875585
5063.471047,-592.164754,16580.613101,-76303.111601
5063.473614,4293.194464,9770.718434,-69101.813920
5063.476182,-13471.748144,-6809.894666,-84423.723880
5063.478750,11843.295072,8586.388927,-76303.111601
5063.481318,592.164754,6365.771101,-79214.274493
5063.483886,-5921.647536,12879.583391,-75996.673402
5063.486454,5033.400406,15396.283594,-66803.527426
5063.489022,-6513.812290,6513.812290,-76915.987999
5063.491590,4145.153275,11991.336260,-70940.443115
5063.494158,9326.594869,9918.759623,-67876.061123
5063.496726,-13471.748144,9474.636058,-72779.072310
5063.499294,20577.725188,12731.542202,-70634.004916
5063.501862,-34345.555709,-2664.741391,-77222.426198
5063.504430,-6957.935855,11547.212695,-74617.701505
5063.506998,14063.912898,1628.453072,-76303.111601
5063.509566,-40711.326810,-22798.343014,-89633.173266
5063.512133,25167.002028,11251.130318,-68335.718422
5063.514701,-27831.743419,-5477.523971,-76609.549800
5063.517269,-2516.700203,6661.853478,-71400.100414
5063.519837,8586.388927,18209.066173,-58376.476948
5063.522405,-23834.631332,-2516.700203,-75077.358804
5063.524973,7254.018232,11547.212695,-60368.325242
5063.527541,-11103.089130,-4589.276840,-72779.072310
5063.530109,-15396.283594,-10214.842000,-83197.971083
5063.532677,5773.606348,18061.024985,-65730.993728
5063.535245,-11843.295072,-3256.906145,-82891.532884
5063.537813,-10362.883188,-6661.853478,-81665.780087
5063.540381,-5477.523971,2960.823768,-69408.252119
5063.542949,-14952.160028,4441.235652,-69101.813920
5063.545517,-11399.171507,-14211.954086,-80440.027290
5063.548085,6513.812290,4589.276840,-70634.004916
5063.550653,-9622.677246,1924.535449,-77069.207099
5063.553220,-2960.823768,-5625.565159,-82431.875585
5063.555788,-8734.430116,13027.624579,-71246.881314
5063.558356,4441.235652,-4293.194464,-78754.617194
5063.560924,-15692.365970,4737.318029,-70787.224015
5063.563492,17764.942608,-11103.089130,-82431.875585
5063.566060,-32124.937883,-6513.812290,-83044.751983
5063.568628,31532.773129,26647.413912,-69561.471218
5063.571195,-25611.125593,-12879.583391,-89786.392366
5063.573763,11547.212695,1924.535449,-76762.768900
5063.576331,21762.054695,33901.432144,-61287.639840
5063.578898,-5181.441594,-7105.977043,-82738.313784
5063.581466,-2368.659014,2072.576638,-75077.358804
5063.584034,6513.812290,8142.265362,-65118.117330
5063.586601,-19097.313304,-5329.482782,-78294.959896
5063.589169,10955.047942,12287.418637,-73698.386908
5063.591737,10214.842000,6661.853478,-81665.780087
5063.594304,-6661.853478,5329.482782,-83810.847481
5063.596872,4441.235652,15840.407159,-65884.212828
5063.599440,-5625.565159,-1924.535449,-75843.454302
5063.602007,592.164754,12139.377449,-73238.729609
5063.604575,12879.583391,13027.624579,-71706.538613
5063.607143,-8734.430116,5921.647536,-77375.645298
5063.609710,3256.906145,7698.141797,-76456.330700
5063.612278,2960.823768,16580.613101,-71093.662214
5063.614846,-2812.782580,2516.700203,-80593.246390
5063.617413,10362.883188,17468.860231,-71093.662214
5063.619981,-888.247130,-3404.947333,-81052.903688
5063.622549,-23982.672521,10658.965565,-72472.634111
5063.625116,30052.361245,10807.006753,-72012.976812
5063.627684,-42783.903448,-27387.619854,-88560.639569
5063.630252,23242.466579,13323.706956,-61747.297139
5063.632819,-14211.954086,-7254.018232,-72932.291410
5063.635387,-21614.013506,-2220.617826,-80133.589091
5063.637955,19985.560434,12435.459826,-74770.920605
5063.640522,-24722.878463,-11695.253884,-90399.268764
5063.643090,15100.201217,8586.388927,-82125.437386
5063.645657,-9474.636058,-3552.988522,-67876.061123
5063.648225,-26351.331535,-17764.942608,-83964.066581
5063.650764,1332.370696,296.082377,-71400.100414
5063.653302,-3108.864956,17024.736666,-61900.516238
5063.655840,-12731.542202,-5625.565159,-83810.847481
5063.658379,6661.853478,9178.553681,-68029.280222
5063.660917,-7105.977043,7254.018232,-70327.566716
5063.663455,-19097.313304,-6217.729913,-79214.274493
5063.665994,-7402.059420,-1924.535449,-69255.033019
5063.668532,-5921.647536,-10955.047942,-79061.055394
5063.671071,-444.123565,740.205942,-74770.920605
5063.673609,-9178.553681,4145.153275,-72625.853210
5063.676147,-1776.494261,8290.306550,-77069.207099
5063.678686,-10658.965565,2812.782580,-74004.825107
5063.681224,-9326.594869,9770.718434,-68029.280222
5063.683763,13027.624579,-18357.107362,-79520.712692
5063.686301,-30052.361245,3404.947333,-71706.538613
5063.688839,31680.814318,21614.013506,-71246.881314
5063.691378,-37010.297100,-9770.718434,-87181.667672
5063.693916,28127.825796,30348.443622,-68488.937521
5063.696454,8882.471304,13175.665768,-74924.139704
5063.698993,-24722.878463,444.123565,-77988.521696
5063.701531,20133.601622,23242.466579,-62666.611736
5063.704070,-11399.171507,-10807.006753,-78294.959896
5063.706608,-4441.235652,5477.523971,-74924.139704
5063.709146,8438.347739,10214.842000,-69561.471218
5063.711685,-11399.171507,3701.029710,-78601.398095
5063.714223,15988.448347,15988.448347,-73851.606007
5063.716761,4737.318029,8882.471304,-71553.319513
5063.719300,-11103.089130,-3552.988522,-82125.437386
5063.721838,9474.636058,13175.665768,-74158.044206
5063.724377,-2960.823768,6661.853478,-76456.330700
5063.726915,-5181.441594,10510.924376,-73085.510509
5063.729453,10807.006753,13915.871710,-67416.403824
5063.731992,-8290.306550,11843.295072,-73238.729609
5063.734530,11103.089130,8734.430116,-74004.825107
5063.737069,2516.700203,14508.036463,-73545.167808
5063.739607,-1776.494261,-6661.853478,-86415.572174
5063.742145,-13323.706956,13323.706956,-67569.622924
5063.744684,15248.242405,8290.306550,-74158.044206
5063.747222,-32569.061448,-26499.372724,-89020.296868
5063.749760,15692.365970,13323.706956,-64045.583633
5063.752304,10066.800811,9622.677246,-73238.729609
5063.754848,-20281.642811,-7994.224174,-86262.353075
5063.757391,4441.235652,12435.459826,-71246.881314
5063.759935,-10510.924376,1480.411884,-77222.426198
5063.762478,-12287.418637,3108.864956,-75996.673402
5063.765022,3108.864956,7550.100608,-70327.566716
5063.767566,-15396.283594,-14359.995275,-80746.465489
5063.770109,-8142.265362,3404.947333,-72166.195912
5063.772653,1628.453072,20725.766376,-60215.106143
5063.775196,-6217.729913,-3997.112087,-79214.274493
5063.777740,-4145.153275,4737.318029,-75843.454302
5063.780283,-1332.370696,5773.606348,-71246.881314
5063.782827,-20133.601622,-5033.400406,-77069.207099
5063.785371,-11843.295072,-9030.512492,-73698.386908
5063.787914,2072.576638,-3256.906145,-72012.976812
5063.790458,-12139.377449,-2812.782580,-76762.768900
5063.793001,-296.082377,8142.265362,-72319.415011
5063.795545,-12731.542202,4885.359217,-76149.892501
5063.798089,5329.482782,8734.430116,-75383.797003
5063.800632,-21910.095883,-7846.182985,-77988.521696
5063.803176,15100.201217,9030.512492,-71706.538613
5063.805719,-23242.466579,-7254.018232,-80899.684589
5063.808263,13027.624579,20281.642811,-71093.662214
5063.810806,12287.418637,8438.347739,-77375.645298
5063.813350,-9918.759623,296.082377,-80440.027290
5063.815894,20873.807564,29608.237680,-66803.527426
5063.818437,-7698.141797,-888.247130,-79367.493593
5063.820981,-4589.276840,-2072.576638,-75843.454302
5063.823524,8734.430116,10807.006753,-70787.224015
5063.826068,-7254.018232,-2220.617826,-78907.836294
5063.828612,5329.482782,11547.212695,-77835.302597
5063.831155,444.123565,17912.983796,-72166.195912
5063.833699,444.123565,-444.123565,-80133.589091
5063.836242,-1628.453072,10066.800811,-67109.965625
5063.838786,5329.482782,2960.823768,-73391.948708
5063.841329,-3404.947333,8290.306550,-76456.330700
5063.843873,3701.029710,14063.912898,-72166.195912
5063.846417,-296.082377,2960.823768,-79673.931792
5063.848960,8438.347739,14359.995275,-74158.044206
5063.851504,2368.659014,7402.059420,-74004.825107
5063.854052,4145.153275,4589.276840,-82278.656485
5063.856600,-5033.400406,0.000000,-79367.493593
5063.859148,5181.441594,14359.995275,-68029.280222
5063.861697,17172.777854,6957.935855,-73391.948708
5063.864245,-39823.079680,-20429.683999,-83197.971083
5063.866793,24426.796086,12139.377449,-61134.420740
5063.869341,-24574.837274,-8142.265362,-75077.358804
5063.871890,-2368.659014,592.164754,-78448.178995
5063.874438,5773.606348,11991.336260,-76456.330700
5063.876986,-18949.272115,-12583.501014,-90246.049664
5063.879534,10214.842000,9622.677246,-79520.712692
5063.882082,-15988.448347,-8142.265362,-81972.218286
5063.884631,-9770.718434,-11547.212695,-80593.246390
5063.887179,-4293.194464,7846.182985,-66956.746525
5063.889727,-592.164754,1628.453072,-77069.207099
5063.892275,-4589.276840,444.123565,-74924.139704
5063.894824,-1776.494261,8290.306550,-69867.909418
5063.897372,-888.247130,3997.112087,-73238.729609
5063.899920,-18209.066173,-8142.265362,-78448.178995
5063.902468,-9770.718434,-5773.606348,-74617.701505
5063.905017,3108.864956,-4589.276840,-79367.493593
5063.907565,-11991.336260,740.205942,-76915.987999
5063.910113,4145.153275,7698.141797,-74924.139704
5063.912661,-17764.942608,1184.329507,-80746.465489
5063.915209,8142.265362,11991.336260,-74617.701505
5063.917758,-22354.219448,-10510.924376,-79827.150892
5063.920306,17320.819043,11843.295072,-72012.976812
5063.922854,-20725.766376,-9030.512492,-83044.751983
5063.925402,6069.688724,20133.601622,-69561.471218
5063.927951,15396.283594,9918.759623,-74924.139704
5063.930499,-11251.130318,-444.123565,-79673.931792
5063.933047,17172.777854,16284.530724,-81206.122788
5063.935595,888.247130,8586.388927,-81818.999186
5063.938144,-16876.695478,-15840.407159,-93770.088955
5063.940692,4293.194464,9770.718434,-71246.881314
5063.943240,-6217.729913,-4293.194464,-79520.712692
5063.945788,-1776.494261,10214.842000,-77988.521696
5063.948336,9918.759623,26943.496289,-67416.403824
5063.950885,-888.247130,-2664.741391,-81818.999186
5063.953433,-8142.265362,2516.700203,-74617.701505
5063.955984,8142.265362,13767.830521,-71246.881314
5063.958536,-4885.359217,1628.453072,-80746.465489
5063.961088,-1184.329507,12435.459826,-74464.482406
5063.963639,9030.512492,10955.047942,-75537.016103
5063.966191,-10510.924376,9030.512492,-78141.740796
5063.968743,13915.871710,17616.901420,-70634.004916
5063.971294,-10362.883188,1184.329507,-74311.263306
5063.973846,14656.077652,12287.418637,-70940.443115
5063.976397,-14656.077652,-12583.501014,-82738.313784
5063.978949,-19245.354492,4441.235652,-72472.634111
5063.981501,9030.512492,8882.471304,-70021.128517
5063.984052,-31384.731941,-20873.807564,-85802.695776
5063.986604,21021.848753,19393.395680,-61134.420740
5063.989155,-15248.242405,1628.453072,-69255.033019
5063.991707,-8142.265362,-740.205942,-72472.634111
5063.994259,3849.070898,17764.942608,-61900.516238
5063.996810,-12139.377449,-1628.453072,-74924.139704
5063.999362,-3552.988522,6069.688724,-68488.937521
5064.001914,-4589.276840,-6809.894666,-76149.892501
5064.004465,-13323.706956,-8734.430116,-81972.218286
5064.007017,-12583.501014,9474.636058,-73851.606007
5064.009568,13323.706956,7550.100608,-70940.443115
5064.012120,-13323.706956,-3552.988522,-79214.274493
5064.014672,-9474.636058,4737.318029,-72472.634111
5064.017223,-10658.965565,-8882.471304,-75230.577904
5064.019775,-13175.665768,-7254.018232,-75383.797003
5064.022326,5329.482782,3552.988522,-70021.128517
5064.024878,-3404.947333,-1036.288319,-78141.740796
5064.027430,-14656.077652,6069.688724,-80286.808190
5064.029981,8586.388927,5921.647536,-77222.426198
5064.032533,-29460.196492,-6365.771101,-81818.999186
5064.035085,30348.443622,296.082377,-80286.808190
5064.037636,-33753.390955,-12731.542202,-90246.049664
5064.040188,22354.219448,23982.672521,-73085.510509
5064.042739,32717.102636,24870.919651,-67876.061123
5064.045291,-22206.178260,-2072.576638,-85343.038477
5064.047843,22354.219448,21465.972318,-73545.167808
5064.050394,-3404.947333,5329.482782,-78754.617194
5064.052946,-18653.189738,-10066.800811,-90092.830565
5064.055497,21614.013506,11843.295072,-70787.224015
5064.058052,-13767.830521,-7254.018232,-80440.027290
5064.060607,7550.100608,8290.306550,-76149.892501
5064.063161,7994.224174,17024.736666,-70634.004916
5064.065716,-7402.059420,-3404.947333,-83044.751983
5064.068270,5921.647536,7254.018232,-69867.909418
5064.070825,1184.329507,2368.659014,-76609.549800
5064.073380,-5329.482782,6365.771101,-80286.808190
5064.075934,10362.883188,12879.583391,-73085.510509
5064.078489,-1776.494261,17172.777854,-72779.072310
5064.081043,-3256.906145,4145.153275,-77988.521696
5064.083598,10955.047942,15840.407159,-69101.813920
5064.086153,-11991.336260,-592.164754,-79520.712692
5064.088707,28571.949361,14656.077652,-69561.471218
5064.091262,-27535.661042,-11103.089130,-80746.465489
5064.093816,-13619.789333,11695.253884,-69101.813920
5064.096371,10510.924376,4737.318029,-70174.347617
5064.098926,-41451.532752,-21762.054695,-88100.982270
5064.101480,30348.443622,17320.819043,-62819.830836
5064.104035,-26499.372724,2072.576638,-71553.319513
5064.106590,-3997.112087,2812.782580,-70480.785816
5064.109144,2220.617826,17912.983796,-58836.134246
5064.111699,-18357.107362,-1924.535449,-76149.892501
5064.114253,1924.535449,1332.370696,-72932.291410
5064.116808,-1628.453072,4145.153275,-70327.566716
5064.119363,-15544.324782,-6513.812290,-86875.229473
5064.121917,-2368.659014,9030.512492,-77528.864398
5064.124472,-3552.988522,1480.411884,-80440.027290
5064.127026,-7846.182985,-5033.400406,-81512.560987
5064.129581,-12731.542202,3552.988522,-71553.319513
5064.132136,-18653.189738,-10214.842000,-80133.589091
5064.134690,-592.164754,-5033.400406,-75077.358804
5064.137245,-9918.759623,3256.906145,-67722.842023
5064.139799,2368.659014,6217.729913,-73085.510509
5064.142354,-20133.601622,9918.759623,-71246.881314
5064.144909,7698.141797,15248.242405,-69714.690318
5064.147463,-3404.947333,-19689.478057,-81206.122788
5064.150018,-4293.194464,13471.748144,-63126.269035
5064.152572,27239.578666,7402.059420,-75383.797003
5064.155127,-34937.720462,888.247130,-80746.465489
5064.157682,35381.844028,34789.679274,-66343.870127
5064.160239,-18505.148550,-888.247130,-87488.105872
5064.162796,5921.647536,7550.100608,-81665.780087
5064.165353,12287.418637,15396.283594,-74617.701505
5064.167911,-15396.283594,-14656.077652,-89479.954166
5064.170468,-2516.700203,9770.718434,-72166.195912
5064.173025,-1036.288319,-148.041188,-74158.044206
5064.175582,-3701.029710,7254.018232,-77375.645298
5064.178140,15100.201217,23242.466579,-67263.184724
5064.180697,-8290.306550,-740.205942,-79980.369991
5064.183254,-10510.924376,-1036.288319,-81359.341888
5064.185811,10362.883188,14952.160028,-71706.538613
5064.188369,-3552.988522,2072.576638,-82278.656485
5064.190926,2368.659014,10807.006753,-78601.398095
5064.193483,7846.182985,15988.448347,-73238.729609
5064.196040,-6661.853478,7550.100608,-77375.645298
5064.198597,6661.853478,20133.601622,-69408.252119
5064.201155,2072.576638,-4441.235652,-81359.341888
5064.203712,-19985.560434,6217.729913,-73391.948708
5064.206269,29312.155303,12583.501014,-66497.089226
5064.208826,-50630.086433,-24130.713709,-85802.695776
5064.211384,22650.301825,12583.501014,-63739.145434
5064.213941,-9770.718434,-4737.318029,-74464.482406
5064.216498,-16580.613101,-3997.112087,-83504.409282
5064.219055,17320.819043,13175.665768,-72012.976812
5064.221613,-12287.418637,-1184.329507,-76456.330700
5064.224170,-15396.283594,-1332.370696,-84730.162079
5064.226727,8142.265362,7846.182985,-71706.538613
5064.229284,-23094.425390,-10214.842000,-79061.055394
5064.231842,-1480.411884,3256.906145,-69408.252119
5064.234399,-5033.400406,19393.395680,-60827.982541
5064.236956,-4441.235652,-5181.441594,-79214.274493
5064.239513,3997.112087,9030.512492,-66803.527426
5064.242071,-14063.912898,-3404.947333,-74311.263306
5064.244628,-13915.871710,-4145.153275,-74464.482406
5064.247185,-3997.112087,1776.494261,-66497.089226
5064.249742,-15544.324782,-8586.388927,-75690.235202
5064.252300,12731.542202,5921.647536,-73085.510509
5064.254857,-21169.889941,10955.047942,-70940.443115
5064.257414,3701.029710,11547.212695,-74770.920605
5064.259971,-17468.860231,-9178.553681,-75230.577904
5064.262529,11695.253884,16136.489536,-61747.297139
5064.265088,4737.318029,-8882.471304,-78907.836294
5064.267647,-18505.148550,12731.542202,-69255.033019
5064.270206,28127.825796,24870.919651,-69714.690318
5064.272765,-20725.766376,-1184.329507,-86262.353075
5064.275323,18653.189738,19541.436869,-75690.235202
5064.277882,1036.288319,0.000000,-82738.313784
5064.280441,-17912.983796,-9770.718434,-90399.268764
5064.283000,14952.160028,14211.954086,-71859.757712
5064.285559,-8142.265362,-4293.194464,-78907.836294
5064.288118,-2368.659014,7550.100608,-77222.426198
5064.290677,13323.706956,18209.066173,-69101.813920
5064.293235,-9918.759623,1036.288319,-77069.207099
5064.295794,-5033.400406,4145.153275,-73698.386908
5064.298353,9622.677246,11843.295072,-67722.842023
5064.300912,-7846.182985,4293.194464,-78754.617194
5064.303471,14211.954086,14211.954086,-75996.673402
5064.306030,-4589.276840,14211.954086,-74924.139704
5064.308589,888.247130,8438.347739,-75996.673402
5064.311147,1332.370696,19689.478057,-66037.431928
5064.313706,2664.741391,-4145.153275,-82431.875585
5064.316265,-13471.748144,4293.194464,-72012.976812
5064.318824,25167.002028,17616.901420,-62973.049936
5064.321383,-48853.592172,-25907.207970,-87334.886772
5064.323942,-31236.690752,-13915.871710,-84270.504780
5064.326500,18949.272115,14359.995275,-69101.813920
5064.329059,-22946.384202,-5329.482782,-82891.532884
5064.331618,4589.276840,9770.718434,-70480.785816
5064.334177,-9326.594869,9030.512492,-70021.128517
5064.336736,-13767.830521,-3552.988522,-81512.560987
5064.339295,1480.411884,7254.018232,-68795.375720
5064.341854,-11991.336260,-10066.800811,-79367.493593
5064.344412,-4589.276840,2960.823768,-73238.729609
5064.346971,-8290.306550,15840.407159,-69408.252119
5064.349530,-3849.070898,-7254.018232,-83810.847481
5064.352089,-2220.617826,6217.729913,-72472.634111
5064.354648,-16136.489536,-5033.400406,-77835.302597
5064.357207,-10214.842000,-2072.576638,-75690.235202
5064.359766,-6809.894666,444.123565,-71246.881314
5064.362324,-9030.512492,-7994.224174,-74311.263306
5064.364885,-3256.906145,4885.359217,-77375.645298
5064.367445,-592.164754,11399.171507,-71859.757712
5064.370006,-20873.807564,-1332.370696,-79214.274493
5064.372566,18209.066173,-3701.029710,-80440.027290
5064.375126,-25463.084405,-5329.482782,-81359.341888
5064.377687,28127.825796,18209.066173,-70940.443115
5064.380247,-8142.265362,296.082377,-78294.959896
5064.382807,-3404.947333,11843.295072,-71553.319513
5064.385368,18061.024985,26795.455100,-58682.915147
5064.387928,-14952.160028,1924.535449,-68488.937521
5064.390488,14952.160028,12139.377449,-64658.460031
5064.393049,-444.123565,14952.160028,-65424.555529
5064.395609,-14508.036463,-3997.112087,-80746.465489
5064.398169,1776.494261,10362.883188,-70634.004916
5064.400730,-1184.329507,16580.613101,-68795.375720
5064.403290,-4885.359217,-5625.565159,-83197.971083
5064.405851,-3256.906145,8882.471304,-68642.156621
5064.408411,9030.512492,6217.729913,-73851.606007
5064.410971,-3108.864956,-888.247130,-81512.560987
5064.413532,12139.377449,16876.695478,-74004.825107
5064.416092,-444.123565,8438.347739,-80286.808190
5064.418652,-1628.453072,10214.842000,-73851.606007
5064.421213,3701.029710,21910.095883,-67569.622924
5064.423773,2220.617826,-7254.018232,-82891.532884
5064.426333,-15396.283594,12583.501014,-68335.718422
5064.428894,26647.413912,11103.089130,-69101.813920
5064.431454,-48113.386230,-22502.260637,-83964.066581
5064.434014,16876.695478,14063.912898,-62360.173537
5064.436575,24574.837274,9030.512492,-71400.100414
5064.439135,-28868.031738,-6661.853478,-86109.133975
5064.441696,8586.388927,13027.624579,-74158.044206
5064.444256,-12879.583391,-888.247130,-77222.426198
5064.446816,-16432.571912,-3404.947333,-83351.190182
5064.449377,9326.594869,4145.153275,-71706.538613
5064.451937,-21317.931130,-10066.800811,-75996.673402
5064.454497,-4737.318029,3701.029710,-70634.004916
5064.457058,740.205942,13915.871710,-63739.145434
5064.459618,-14804.118840,-4441.235652,-77222.426198
5064.462178,4737.318029,5625.565159,-68182.499322
5064.464739,-15248.242405,-1628.453072,-72779.072310
5064.467271,-8142.265362,-1480.411884,-75843.454302
5064.469804,-5773.606348,-444.123565,-70327.566716
5064.472336,-8882.471304,-7846.182985,-76149.892501
5064.474869,-3256.906145,1332.370696,-79827.150892
5064.477401,2812.782580,11991.336260,-72625.853210
5064.479934,-22502.260637,-3404.947333,-81512.560987
5064.482466,21021.848753,-5773.606348,-81512.560987
5064.484999,-31088.649564,-6217.729913,-84730.162079
5064.487531,37010.297100,21169.889941,-72779.072310
5064.490064,-18505.148550,-2220.617826,-80286.808190
5064.492597,148.041188,17912.983796,-70327.566716
5064.495129,17024.736666,27535.661042,-57916.819649
5064.497662,-17912.983796,-1184.329507,-70787.224015
5064.500194,23094.425390,18801.230927,-62819.830836
5064.502727,-2220.617826,11843.295072,-65577.774629
5064.505259,-20429.683999,-1924.535449,-81972.218286
5064.507792,2960.823768,5477.523971,-76456.330700
5064.510324,3849.070898,12139.377449,-72779.072310
5064.512857,-9622.677246,-7105.977043,-86875.229473
5064.515389,8586.388927,12583.501014,-69561.471218
5064.517922,-1480.411884,6661.853478,-77222.426198
5064.520454,-2960.823768,1184.329507,-82278.656485
5064.522987,15544.324782,20281.642811,-70787.224015
5064.525519,-10658.965565,3849.070898,-81359.341888
5064.528052,8438.347739,11695.253884,-72932.291410
5064.530584,-5921.647536,20133.601622,-68029.280222
5064.533117,12287.418637,-148.041188,-78601.398095
5064.535649,-19689.478057,-1036.288319,-70634.004916
5064.538182,23094.425390,14952.160028,-65577.774629
5064.540714,-32569.061448,-20429.683999,-84270.504780
5064.543247,-40267.203245,-16580.613101,-83964.066581
5064.545780,30052.361245,13027.624579,-67263.184724
5064.548312,-15988.448347,148.041188,-73698.386908
5064.550845,-9326.594869,9030.512492,-68029.280222
5064.553377,2960.823768,13471.748144,-63432.707234
5064.555910,-20725.766376,-3701.029710,-76609.549800
5064.558442,5033.400406,5033.400406,-69408.252119
5064.560975,-5773.606348,-8438.347739,-76915.987999
5064.563507,-15840.407159,-592.164754,-79673.931792
5064.566040,4145.153275,15248.242405,-66343.870127
5064.568579,-21021.848753,-5921.647536,-78448.178995
5064.571118,-2072.576638,-1036.288319,-74464.482406
5064.573657,-296.082377,-3108.864956,-75843.454302
5064.576195,-18653.189738,-7105.977043,-81665.780087
5064.578734,-8142.265362,-11991.336260,-77375.645298
5064.581273,4441.235652,8438.347739,-66803.527426
5064.583812,-16432.571912,-1036.288319,-76303.111601
5064.586351,8734.430116,20281.642811,-64964.898230
5064.588890,-28868.031738,-7550.100608,-74311.263306
5064.591429,16284.530724,18949.272115,-62360.173537
5064.593968,4737.318029,-2812.782580,-74770.920605
5064.596507,-15544.324782,6513.812290,-74617.701505
5064.599046,34049.473332,24574.837274,-67263.184724
5064.601585,-33013.185013,-1924.535449,-88867.077768
5064.604124,19245.354492,16136.489536,-80133.589091
5064.606663,5477.523971,3256.906145,-78294.959896
5064.609202,-14508.036463,-11843.295072,-93157.212557
5064.611741,592.164754,5625.565159,-76149.892501
5064.614280,-5477.523971,14359.995275,-64658.460031
5064.616819,-12139.377449,-1924.535449,-81052.903688
5064.619357,12435.459826,16728.654289,-63585.926334
5064.621896,-2516.700203,7402.059420,-69714.690318
5064.624435,-3108.864956,1184.329507,-76915.987999
5064.626974,1628.453072,21614.013506,-62053.735338
5064.629513,2368.659014,8290.306550,-76762.768900
5064.632052,1332.370696,11843.295072,-74617.701505
5064.634591,3108.864956,16876.695478,-73851.606007
5064.637130,6365.771101,12731.542202,-80593.246390
5064.639669,-5181.441594,2960.823768,-80133.589091
5064.642208,-9474.636058,8438.347739,-73085.510509
5064.644747,20725.766376,3256.906145,-74464.482406
5064.647286,-44116.274143,-19393.395680,-80899.684589
5064.649825,-8882.471304,1332.370696,-75230.577904
5064.652364,8882.471304,5329.482782,-73238.729609
5064.654903,-21021.848753,-8882.471304,-91318.583362
5064.657442,13619.789333,9178.553681,-80593.246390
5064.659981,-23686.590144,-5773.606348,-81972.218286
5064.662520,-8734.430116,-4145.153275,-84117.285680
5064.665058,4589.276840,592.164754,-74311.263306
5064.667597,-16432.571912,-5181.441594,-79061.055394
5064.670142,1776.494261,3404.947333,-71400.100414
5064.672687,-10658.965565,11991.336260,-67722.842023
5064.675232,-9326.594869,-3256.906145,-75537.016103
5064.677777,-4145.153275,4293.194464,-68182.499322
5064.680322,-3849.070898,-2368.659014,-76149.892501
5064.682866,-4441.235652,1184.329507,-73391.948708
5064.685411,-13323.706956,-6809.894666,-71553.319513
5064.687956,-1184.329507,1924.535449,-71553.319513
5064.690501,-8586.388927,1184.329507,-75077.358804
5064.693046,3256.906145,19541.436869,-67876.061123
5064.695590,-24574.837274,-8882.471304,-80746.465489
5064.698135,17024.736666,20429.683999,-65271.336430
5064.700680,-7846.182985,-7698.141797,-79367.493593
5064.703225,-5773.606348,7846.182985,-72012.976812
5064.705770,26351.331535,23834.631332,-67263.184724
5064.708315,-18949.272115,-5181.441594,-89173.515967
5064.710859,16580.613101,19837.519246,-74004.825107
5064.713404,-5625.565159,-444.123565,-83351.190182
5064.715949,-8586.388927,-12139.377449,-90092.830565
5064.718494,13619.789333,22058.137072,-66343.870127
5064.721039,-5181.441594,10955.047942,-72472.634111
5064.723584,-3997.112087,444.123565,-79980.369991
5064.726128,4441.235652,19985.560434,-65118.117330
5064.728673,5773.606348,5329.482782,-74158.044206
5064.731218,-12139.377449,2664.741391,-74770.920605
5064.733763,12287.418637,16728.654289,-66343.870127
5064.736308,6957.935855,12583.501014,-73851.606007
5064.738852,-4293.194464,13323.706956,-74464.482406
5064.741397,9326.594869,15988.448347,-70940.443115
5064.743942,-5921.647536,14804.118840,-75537.016103
5064.746487,7698.141797,5773.606348,-77988.521696
5064.749032,-18209.066173,-2516.700203,-73391.948708
5064.751577,22650.301825,13767.830521,-65577.774629
5064.754121,-3108.864956,-7254.018232,-77375.645298
5064.756666,-37158.338288,-15988.448347,-85343.038477
5064.759211,17320.819043,13619.789333,-71093.662214
5064.761756,-15248.242405,-7402.059420,-83504.409282
5064.764301,-7550.100608,7994.224174,-74158.044206
5064.766846,-2960.823768,5625.565159,-71859.757712
5064.769390,-17468.860231,-8142.265362,-83044.751983
5064.771911,1184.329507,8142.265362,-71246.881314
5064.774432,-7846.182985,-4145.153275,-74924.139704
5064.776952,-9030.512492,3552.988522,-73391.948708
5064.779473,-1332.370696,11399.171507,-66037.431928
5064.781994,-12139.377449,-4737.318029,-76456.330700
5064.784514,-15100.201217,-740.205942,-76915.987999
5064.787035,5625.565159,1480.411884,-77835.302597
5064.789555,-25167.002028,-10510.924376,-82738.313784
5064.792076,-7698.141797,-4737.318029,-77222.426198
5064.794597,-5033.400406,-148.041188,-77988.521696
5064.797117,-296.082377,1332.370696,-81052.903688
5064.799638,-22058.137072,5773.606348,-76149.892501
5064.802159,18653.189738,2220.617826,-79980.369991
5064.804679,-33161.226202,-6513.812290,-85955.914876
5064.807200,34345.555709,24722.878463,-68029.280222
5064.809720,-9030.512492,-2960.823768,-80440.027290
5064.812241,-5033.400406,13175.665768,-72012.976812
5064.814762,21762.054695,30496.484810,-58682.915147
5064.817282,-18949.272115,-2812.782580,-74770.920605
5064.819803,18801.230927,16876.695478,-60981.201641
5064.822324,592.164754,17172.777854,-63432.707234
5064.824844,-21317.931130,-3404.947333,-84270.504780
5064.827365,8438.347739,10214.842000,-70787.224015
5064.829886,5033.400406,14211.954086,-70327.566716
5064.832406,-2960.823768,-2812.782580,-83964.066581
5064.834927,3404.947333,6809.894666,-75537.016103
5064.837447,-1480.411884,14063.912898,-74004.825107
5064.839968,9474.636058,7994.224174,-79214.274493
5064.842489,-2516.700203,15840.407159,-72779.072310
5064.845009,5773.606348,7994.224174,-80286.808190
5064.847530,-3552.988522,14656.077652,-75537.016103
5064.850051,6513.812290,5181.441594,-80286.808190
5064.852571,-13915.871710,296.082377,-74004.825107
5064.855092,19837.519246,13915.871710,-63432.707234
5064.857612,-37750.503042,-25907.207970,-83044.751983
5064.860133,3849.070898,9030.512492,-64352.021832
5064.862654,16284.530724,15544.324782,-68948.594820
5064.865174,-17024.736666,-7698.141797,-85496.257577
5064.867695,2960.823768,8882.471304,-74464.482406
5064.870216,-9178.553681,5329.482782,-72625.853210
5064.872746,-15692.365970,-8142.265362,-81818.999186
5064.875276,3256.906145,10807.006753,-69255.033019
5064.877806,-7698.141797,-5181.441594,-79214.274493
5064.880336,-5181.441594,4145.153275,-74464.482406
5064.882866,-2220.617826,14211.954086,-65884.212828
5064.885396,-13175.665768,-6661.853478,-76762.768900
5064.887926,-5033.400406,3997.112087,-72012.976812
5064.890456,2072.576638,-1776.494261,-78294.959896
5064.892986,-14804.118840,-4885.359217,-77682.083497
5064.895516,-7994.224174,-7994.224174,-74464.482406
5064.898046,-8438.347739,-1924.535449,-78294.959896
5064.900576,2072.576638,-2664.741391,-81359.341888
5064.903107,-14063.912898,9326.594869,-73238.729609
5064.905637,16284.530724,-3256.906145,-81665.780087
5064.908167,-33161.226202,-1776.494261,-81359.341888
5064.910697,40267.203245,25315.043216,-67569.622924
5064.913227,-23538.548956,-7402.059420,-83197.971083
5064.915757,6661.853478,22206.178260,-66956.746525
5064.918287,18801.230927,29164.114115,-60521.544342
5064.920817,-22058.137072,-4441.235652,-75996.673402
5064.923347,19541.436869,21021.848753,-60215.106143
5064.925877,-3256.906145,8586.388927,-70787.224015
5064.928407,-15544.324782,-3108.864956,-84270.504780
5064.930937,14359.995275,17468.860231,-68642.156621
5064.933467,4737.318029,15248.242405,-69255.033019
5064.935998,-9030.512492,-8142.265362,-87947.763170
5064.938528,6513.812290,8882.471304,-74770.920605
5064.941058,3552.988522,16876.695478,-74004.825107
5064.943588,5625.565159,8586.388927,-79061.055394
5064.946118,-5329.482782,13767.830521,-71093.662214
5064.948648,6513.812290,8882.471304,-77682.083497
5064.951178,-7402.059420,12435.459826,-72472.634111
5064.953716,13619.789333,13471.748144,-72779.072310
5064.956253,-20133.601622,-7550.100608,-75383.797003
5064.958791,20429.683999,21169.889941,-57916.819649
5064.961328,-32717.102636,-23242.466579,-83810.847481
5064.963866,-18949.272115,-1924.535449,-75383.797003
5064.966403,12139.377449,7105.977043,-77528.864398
5064.968941,-17320.819043,-3404.947333,-78754.617194
5064.971478,-6365.771101,7254.018232,-70021.128517
5064.974016,-1036.288319,14359.995275,-62360.173537
5064.976554,-17912.983796,-9474.636058,-78294.959896
5064.979091,444.123565,10214.842000,-66650.308326
5064.981629,-3849.070898,-3108.864956,-77988.521696
5064.984166,-12287.418637,-2220.617826,-78907.836294
5064.986704,-6513.812290,12139.377449,-67109.965625
5064.989241,-7698.141797,-5329.482782,-77069.207099
5064.991779,-13027.624579,5477.523971,-70940.443115
5064.994317,4293.194464,-1184.329507,-76149.892501
5064.996854,-25759.166782,-9770.718434,-80746.465489
5064.999392,2960.823768,0.000000,-74924.139704
5065.001929,-11547.212695,-1776.494261,-74464.482406
5065.004467,4589.276840,8142.265362,-75230.577904
5065.007004,-24574.837274,444.123565,-72319.415011
5065.009542,16432.571912,17764.942608,-66037.431928
5065.012080,-13027.624579,-7402.059420,-81512.560987
5065.014617,2368.659014,12435.459826,-71093.662214
5065.017155,22058.137072,16728.654289,-71553.319513
5065.019692,-21021.848753,-740.205942,-84117.285680
5065.022230,18357.107362,21465.972318,-71246.881314
5065.024767,-7994.224174,3108.864956,-77069.207099
5065.027305,-2664.741391,-6069.688724,-82738.313784
5065.029842,13471.748144,22058.137072,-64811.679131
5065.032380,-4441.235652,-3256.906145,-81665.780087
5065.034918,-5625.565159,-888.247130,-77988.521696
5065.037455,148.041188,14804.118840,-66037.431928
5065.039993,6809.894666,9770.718434,-70021.128517
5065.042530,-2368.659014,3108.864956,-77222.426198
5065.045068,9622.677246,19689.478057,-70480.785816
5065.047605,3404.947333,10955.047942,-75996.673402
5065.050143,-2812.782580,8882.471304,-74464.482406
5065.052681,13915.871710,17320.819043,-74004.825107
5065.055196,-8882.471304,-4441.235652,-83351.190182
5065.057712,-1628.453072,20429.683999,-72472.634111
5065.060227,10066.800811,-7254.018232,-84576.942979
5065.062743,-45004.521274,-12731.542202,-79980.369991
5065.065258,26499.372724,14063.912898,-60981.201641
5065.067774,-39082.873738,-22058.137072,-79827.150892
5065.070289,13027.624579,7402.059420,-68948.594820
5065.072805,3849.070898,11843.295072,-65271.336430
5065.075320,-24574.837274,-12435.459826,-87334.886772
5065.077836,-2960.823768,-1332.370696,-81052.903688
5065.080351,3256.906145,-2368.659014,-75230.577904
5065.082867,-21021.848753,-6069.688724,-79367.493593
5065.085382,1332.370696,8438.347739,-69101.813920
5065.087898,-8438.347739,6513.812290,-70940.443115
5065.090413,-10955.047942,2516.700203,-73391.948708
5065.092929,7550.100608,3849.070898,-65884.212828
5065.095444,-14952.160028,-3849.070898,-75996.673402
5065.097960,-4737.318029,-2516.700203,-73698.386908
5065.100475,-5033.400406,-6661.853478,-73698.386908
5065.102991,-16728.654289,-2960.823768,-77682.083497
5065.105507,9918.759623,-296.082377,-75230.577904
5065.108022,-17172.777854,11251.130318,-74770.920605
5065.110538,20429.683999,5921.647536,-80746.465489
5065.113053,-24278.754898,-3997.112087,-80899.684589
5065.115569,21021.848753,21614.013506,-69255.033019
5065.118084,7550.100608,3849.070898,-75690.235202
5065.120600,-16284.530724,8142.265362,-72012.976812
5065.123115,16580.613101,31532.773129,-58376.476948
5065.125631,-11251.130318,-4885.359217,-73698.386908
5065.128146,2664.741391,11103.089130,-68948.594820
5065.130662,17764.942608,19097.313304,-64352.021832
5065.133177,-25463.084405,-5181.441594,-80440.027290
5065.135693,-1480.411884,7402.059420,-74004.825107
5065.138208,11991.336260,12583.501014,-69867.909418
5065.140724,-8142.265362,-4441.235652,-86415.572174
5065.143239,5921.647536,11103.089130,-75843.454302
5065.145755,14063.912898,17320.819043,-70021.128517
5065.148270,-7846.182985,9770.718434,-77069.207099
5065.150786,9030.512492,11991.336260,-72012.976812
5065.153301,5033.400406,17616.901420,-71246.881314
5065.155828,-6809.894666,-7105.977043,-83504.409282
5065.158355,5181.441594,23538.548956,-68488.937521
5065.160882,2220.617826,-7550.100608,-84576.942979
5065.163409,-37158.338288,-13323.706956,-78294.959896
5065.165936,21614.013506,14952.160028,-58529.696047
5065.168463,-38490.708984,-23094.425390,-81052.903688
5065.170990,17764.942608,7698.141797,-66343.870127
5065.173517,-2812.782580,12731.542202,-64964.898230
5065.176044,-19689.478057,-11399.171507,-77682.083497
5065.178571,-1776.494261,-888.247130,-80133.589091
5065.181097,1184.329507,592.164754,-73545.167808
5065.183624,-14508.036463,-9474.636058,-78754.617194
5065.186151,4441.235652,14359.995275,-67722.842023
5065.188678,-8142.265362,-1332.370696,-79367.493593
5065.191205,-12287.418637,-2368.659014,-77682.083497
5065.193732,3552.988522,5773.606348,-69561.471218
5065.196259,-1332.370696,-4145.153275,-75077.358804
5065.198786,-21317.931130,-14359.995275,-79061.055394
5065.201313,3256.906145,7105.977043,-68488.937521
5065.203840,-18949.272115,-5625.565159,-78601.398095
5065.206366,4589.276840,13619.789333,-72779.072310
5065.208893,-18653.189738,-2368.659014,-76149.892501
5065.211420,10214.842000,16728.654289,-69255.033019
5065.213947,2664.741391,-3552.988522,-76456.330700
5065.216474,-6957.935855,-3256.906145,-82431.875585
5065.219001,29608.237680,28423.908173,-71553.319513
5065.221528,-16432.571912,6661.853478,-84730.162079
5065.224055,148.041188,3256.906145,-84730.162079
5065.226582,12287.418637,15692.365970,-73238.729609
5065.229109,-2960.823768,-16876.695478,-90092.830565
5065.231635,-5181.441594,8586.388927,-75996.673402
5065.234162,0.000000,16136.489536,-70940.443115
5065.236689,-9326.594869,-2220.617826,-83504.409282
5065.239216,2960.823768,14211.954086,-67876.061123
5065.241743,9474.636058,9770.718434,-69101.813920
5065.244270,-6809.894666,7105.977043,-75077.358804
5065.246797,13767.830521,22058.137072,-68948.594820
5065.249324,-592.164754,9326.594869,-76609.549800
5065.251851,-2368.659014,11399.171507,-73851.606007
5065.254378,740.205942,9030.512492,-74924.139704
5065.256914,19985.560434,13619.789333,-71706.538613
5065.259451,-23390.507767,-14656.077652,-85036.600278
5065.261988,-1036.288319,14804.118840,-66803.527426
5065.264524,-2220.617826,-4441.235652,-75843.454302
5065.267061,-38638.750172,-20133.601622,-85343.038477
5065.269597,23834.631332,15988.448347,-64198.802732
5065.272134,-21465.972318,-296.082377,-76915.987999
5065.274671,-3849.070898,5625.565159,-70787.224015
5065.277207,-3108.864956,17024.736666,-63432.707234
5065.279744,-18209.066173,-13767.830521,-82891.532884
5065.282280,4885.359217,4737.318029,-69408.252119
5065.284817,-7105.977043,-3108.864956,-77375.645298
5065.287354,-7994.224174,-1480.411884,-81052.903688
5065.289890,-3552.988522,6513.812290,-75843.454302
5065.292427,-10214.842000,-2960.823768,-78448.178995
5065.294963,-10510.924376,-9326.594869,-82278.656485
5065.297500,-8586.388927,1776.494261,-70480.785816
5065.300037,-7846.182985,-8734.430116,-76915.987999
5065.302573,-7550.100608,-888.247130,-74617.701505
5065.305110,2368.659014,4145.153275,-75537.016103
5065.307646,-17320.819043,1184.329507,-79061.055394
5065.310183,16580.613101,10214.842000,-75690.235202
5065.312719,-27239.578666,-6809.894666,-85802.695776
5065.315256,34493.596897,22206.178260,-71400.100414
5065.317793,-15396.283594,-2368.659014,-80899.684589
5065.320329,296.082377,11251.130318,-73085.510509
5065.322866,14656.077652,26943.496289,-65730.993728
5065.325402,-8142.265362,-2812.782580,-78754.617194
5065.327939,148.041188,-2220.617826,-79367.493593
5065.330476,13767.830521,23686.590144,-61440.858940
5065.333012,-2072.576638,-8882.471304,-85343.038477
5065.335549,-11547.212695,0.000000,-81818.999186
5065.338085,8882.471304,19097.313304,-65884.212828
5065.340622,-5921.647536,-4145.153275,-81206.122788
5065.343159,-1924.535449,9030.512492,-74924.139704
5065.345695,19985.560434,18357.107362,-71400.100414
5065.348232,-17172.777854,5773.606348,-79980.369991
5065.350768,10658.965565,16728.654289,-72779.072310
5065.353305,1924.535449,14656.077652,-73391.948708
5065.355842,592.164754,-888.247130,-81818.999186
5065.358386,-15544.324782,-8586.388927,-80133.589091
5065.360930,14063.912898,14211.954086,-66803.527426
5065.363474,-25759.166782,-16432.571912,-83504.409282
5065.366018,-25315.043216,-9918.759623,-82125.437386
5065.368562,14508.036463,12139.377449,-71400.100414
5065.371107,-21465.972318,-9030.512492,-85802.695776
5065.373651,9770.718434,11103.089130,-74770.920605
5065.376195,-11991.336260,3404.947333,-76609.549800
5065.378739,-18061.024985,-12139.377449,-83657.628382
5065.381283,1776.494261,10214.842000,-64811.679131
5065.383827,-6957.935855,-8586.388927,-77222.426198
5065.386372,-6217.729913,4441.235652,-71553.319513
5065.388916,-1776.494261,13175.665768,-65577.774629
5065.391460,-15396.283594,-8438.347739,-79520.712692
5065.394004,-1184.329507,7105.977043,-66037.431928
5065.396548,-7402.059420,444.123565,-71400.100414
5065.399092,-8290.306550,-6957.935855,-75996.673402
5065.401637,-8882.471304,2072.576638,-74464.482406
5065.404181,2220.617826,1332.370696,-77528.864398
5065.406725,-20725.766376,1480.411884,-79061.055394
5065.409269,18949.272115,12287.418637,-75996.673402
5065.411813,-29164.114115,-9326.594869,-86109.133975
5065.414357,29904.320057,25907.207970,-67876.061123
5065.416902,-5921.647536,-2960.823768,-79367.493593
5065.419446,-10807.006753,11843.295072,-71553.319513
5065.421990,15396.283594,37010.297100,-54086.342159
5065.424534,-12731.542202,-6661.853478,-74464.482406
5065.427078,10955.047942,18505.148550,-62360.173537
5065.429622,16284.530724,22354.219448,-60827.982541
5065.432166,-1480.411884,-5921.647536,-82585.094684
5065.434711,-14063.912898,-296.082377,-81052.903688
5065.437255,13915.871710,20281.642811,-65577.774629
5065.439799,-8142.265362,-1628.453072,-78601.398095
5065.442343,-296.082377,9030.512492,-73085.510509
5065.444887,15100.201217,18653.189738,-68948.594820
5065.447431,-12879.583391,5773.606348,-79827.150892
5065.449976,11547.212695,14952.160028,-74770.920605
5065.452520,-6957.935855,12435.459826,-74004.825107
5065.455064,13175.665768,5181.441594,-79520.712692
5065.457608,-15692.365970,-7402.059420,-79980.369991
5065.460159,10807.006753,14508.036463,-69867.909418
5065.462710,-18949.272115,-18061.024985,-83197.971083
5065.465261,-36862.255912,-21465.972318,-83504.409282
5065.467811,18949.272115,14359.995275,-65118.117330
5065.470362,-10658.965565,5033.400406,-68795.375720
5065.472913,-18357.107362,3701.029710,-70634.004916
5065.475464,4145.153275,16432.571912,-62973.049936
5065.478015,-15544.324782,-11103.089130,-80746.465489
5065.480566,-1924.535449,4293.194464,-71553.319513
5065.483116,2812.782580,4293.194464,-71093.662214
5065.485667,-18801.230927,-4145.153275,-85189.819378
5065.488218,1332.370696,9918.759623,-72012.976812
5065.490769,-6957.935855,-5625.565159,-77835.302597
5065.493320,-18357.107362,-9178.553681,-82278.656485
5065.495871,-592.164754,-2960.823768,-71093.662214
5065.498421,-14804.118840,-3256.906145,-73698.386908
5065.500972,-17912.983796,-2516.700203,-74004.825107
5065.503523,10362.883188,17172.777854,-63585.926334
5065.506074,-25315.043216,-5033.400406,-75230.577904
5065.508625,16728.654289,25907.207970,-62206.954438
5065.511176,12583.501014,-592.164754,-73545.167808
5065.513726,-19837.519246,3404.947333,-75383.797003
5065.516277,36862.255912,24574.837274,-68335.718422
5065.518828,-32569.061448,-3552.988522,-92237.897959
5065.521379,14952.160028,11103.089130,-83351.190182
5065.523930,7994.224174,5477.523971,-78448.178995
5065.526480,-14804.118840,-15248.242405,-93310.431656
5065.529031,12583.501014,18505.148550,-66956.746525
5065.531582,-1036.288319,6217.729913,-77835.302597
5065.534133,-4145.153275,-8142.265362,-86262.353075
5065.536684,6513.812290,18061.024985,-71859.757712
5065.539235,5329.482782,16136.489536,-68029.280222
5065.541785,-5033.400406,740.205942,-82431.875585
5065.544336,2072.576638,19097.313304,-71553.319513
5065.546887,2072.576638,15692.365970,-73085.510509
5065.549438,4737.318029,15396.283594,-75843.454302
5065.551989,148.041188,8734.430116,-74464.482406
5065.554540,-6957.935855,11991.336260,-67876.061123
5065.557090,17616.901420,7994.224174,-69408.252119
5065.559641,-41303.491564,-21021.848753,-80593.246390
5065.562198,19097.313304,9326.594869,-60521.544342
5065.564754,-24870.919651,-8438.347739,-72012.976812
5065.567311,592.164754,-5921.647536,-82278.656485
5065.569867,5625.565159,12287.418637,-73851.606007
5065.572423,-18209.066173,-4589.276840,-84883.381178
5065.574980,-14211.954086,-10362.883188,-87641.324971
5065.577536,1184.329507,8142.265362,-69867.909418
5065.580093,-8882.471304,-9918.759623,-80133.589091
5065.582649,-6365.771101,2664.741391,-72166.195912
5065.585205,-1036.288319,14211.954086,-64045.583633
5065.587762,-16284.530724,-8586.388927,-78907.836294
5065.590318,-3997.112087,9030.512492,-66037.431928
5065.592875,-11251.130318,-7105.977043,-72625.853210
5065.595431,-2072.576638,-4293.194464,-74617.701505
5065.597987,-9622.677246,3256.906145,-71400.100414
5065.600544,-888.247130,-4145.153275,-81206.122788
5065.603100,-18209.066173,740.205942,-79520.712692
5065.605657,17616.901420,28127.825796,-66650.308326
5065.608213,-11991.336260,-11547.212695,-85189.819378
5065.610770,-21021.848753,1332.370696,-77682.083497
5065.613326,28275.866984,28127.825796,-66803.527426
5065.615882,-23390.507767,-6809.894666,-94689.403553
5065.618439,8734.430116,8734.430116,-85649.476676
5065.620995,15840.407159,5477.523971,-83810.847481
5065.623552,-13915.871710,-13767.830521,-93157.212557
5065.626108,3256.906145,16580.613101,-67416.403824
5065.628664,6217.729913,6365.771101,-73545.167808
5065.631221,-11547.212695,-8290.306550,-87181.667672
5065.633777,12287.418637,16728.654289,-65271.336430
5065.636334,-444.123565,7105.977043,-72932.291410
5065.638890,5477.523971,8142.265362,-77528.864398
5065.641446,9622.677246,18357.107362,-66190.651027
5065.644003,-296.082377,12287.418637,-73085.510509
5065.646559,-1628.453072,12879.583391,-75690.235202
5065.649116,19985.560434,15248.242405,-69867.909418
5065.651672,-28275.866984,-740.205942,-72319.415011
5065.654229,28275.866984,16432.571912,-59908.667944
5065.656785,-37158.338288,-23094.425390,-79827.150892
5065.659341,-14508.036463,-4589.276840,-76609.549800
5065.661898,12435.459826,7550.100608,-74004.825107
5065.664458,-23982.672521,-13619.789333,-94689.403553
5065.667019,17024.736666,11103.089130,-80746.465489
5065.669579,-17912.983796,-7105.977043,-84883.381178
5065.672139,-21465.972318,-11843.295072,-90092.830565
5065.674700,13175.665768,8734.430116,-71706.538613
5065.677260,-12731.542202,-8882.471304,-81359.341888
5065.679820,-15544.324782,-6069.688724,-85036.600278
5065.682381,4293.194464,12879.583391,-64964.898230
5065.684941,-11399.171507,-6365.771101,-75537.016103
5065.687502,-14656.077652,-10066.800811,-78448.178995
5065.690062,-2960.823768,-2960.823768,-71553.319513
5065.692622,-13027.624579,-5181.441594,-78754.617194
5065.695183,-3552.988522,888.247130,-71400.100414
5065.697743,-3108.864956,14508.036463,-67109.965625
5065.700304,-19097.313304,-11695.253884,-81359.341888
5065.702864,11843.295072,32717.102636,-59449.010645
5065.705424,8586.388927,-7550.100608,-83964.066581
5065.707985,-6513.812290,7994.224174,-73545.167808
5065.710545,24574.837274,23538.548956,-66497.089226
5065.713105,-20429.683999,-8734.430116,-91931.459760
5065.715666,-1036.288319,1184.329507,-87028.448573
5065.718226,18653.189738,15988.448347,-76456.330700
5065.720787,-7105.977043,-14063.912898,-91012.145162
5065.723347,-11547.212695,11251.130318,-69561.471218
5065.725907,8438.347739,16432.571912,-66343.870127
5065.728468,-9474.636058,-10066.800811,-84883.381178
5065.731028,5033.400406,11103.089130,-74770.920605
5065.733589,16136.489536,9622.677246,-76609.549800
5065.736149,-15248.242405,3849.070898,-83504.409282
5065.738709,10807.006753,15396.283594,-71093.662214
5065.741270,0.000000,9770.718434,-74770.920605
5065.743830,-6661.853478,12879.583391,-74770.920605
5065.746390,28275.866984,17468.860231,-68029.280222
5065.748951,-22946.384202,-15840.407159,-86415.572174
5065.751511,-23094.425390,10214.842000,-68948.594820
5065.754072,12731.542202,2812.782580,-69255.033019
5065.756632,-45744.727216,-27387.619854,-90399.268764
5065.759192,29756.278868,16728.654289,-65424.555529
5065.761753,-13471.748144,3404.947333,-72472.634111
5065.764313,-17024.736666,5477.523971,-71859.757712
5065.766877,10658.965565,18949.272115,-57610.381450
5065.769441,-24574.837274,-13323.706956,-81818.999186
5065.772005,-148.041188,1480.411884,-71093.662214
5065.774569,2664.741391,8882.471304,-68642.156621
5065.777133,-19541.436869,-5921.647536,-85496.257577
5065.779696,-2220.617826,7846.182985,-66803.527426
5065.782260,-10510.924376,-2220.617826,-75230.577904
5065.784824,-15840.407159,-12583.501014,-81818.999186
5065.787388,8142.265362,0.000000,-72779.072310
5065.789952,-15396.283594,-1480.411884,-78907.836294
5065.792516,-5181.441594,-8882.471304,-81818.999186
5065.795080,-12139.377449,11695.253884,-66037.431928
5065.797643,13767.830521,-4145.153275,-82431.875585
5065.800207,-20873.807564,4293.194464,-75537.016103
5065.802771,33753.390955,28275.866984,-66497.089226
5065.805335,-24278.754898,-8734.430116,-85649.476676
5065.807899,7846.182985,22650.301825,-66343.870127
5065.810463,11251.130318,23982.672521,-65730.993728
5065.813027,-17468.860231,-5921.647536,-77375.645298
5065.815590,14656.077652,23094.425390,-63585.926334
5065.818154,8290.306550,2960.823768,-77222.426198
5065.820718,-16136.489536,-7254.018232,-84270.504780
5065.823282,-4885.359217,4737.318029,-73851.606007
5065.825846,14656.077652,11399.171507,-69867.909418
5065.828410,-13471.748144,888.247130,-81206.122788
5065.830974,11991.336260,18653.189738,-69561.471218
5065.833538,-2664.741391,10510.924376,-74617.701505
5065.836101,-6217.729913,6069.688724,-79827.150892
5065.838665,14359.995275,24574.837274,-69255.033019
5065.841229,-1628.453072,444.123565,-86722.010374
5065.843793,-15396.283594,13471.748144,-76456.330700
5065.846357,23538.548956,10658.965565,-73545.167808
5065.848921,-52554.621882,-34049.473332,-89786.392366
5065.851485,30644.525999,8438.347739,-59449.010645
5065.854048,-23242.466579,-13323.706956,-75230.577904
5065.856612,-25463.084405,-13619.789333,-94842.622652
5065.859176,18505.148550,15396.283594,-78754.617194
5065.861740,-25167.002028,-4589.276840,-83810.847481
5065.864304,-18209.066173,-13767.830521,-87181.667672
5065.866868,8290.306550,11843.295072,-65271.336430
5065.869405,-8882.471304,-5773.606348,-80133.589091
5065.871943,-6513.812290,-1184.329507,-78601.398095
5065.874481,1924.535449,17172.777854,-64198.802732
5065.877018,-11991.336260,-12583.501014,-77528.864398
5065.879556,-12879.583391,-3849.070898,-69101.813920
5065.882094,-2072.576638,-2516.700203,-71246.881314
5065.884631,-11251.130318,-6217.729913,-77222.426198
5065.887169,-5625.565159,6365.771101,-68335.718422
5065.889707,-2664.741391,8142.265362,-66190.651027
5065.892244,5773.606348,-13027.624579,-82125.437386
5065.894782,-21465.972318,14063.912898,-70021.128517
5065.897320,42783.903448,24722.878463,-71093.662214
5065.899857,-35825.967593,-3997.112087,-83351.190182
5065.902395,25907.207970,29460.196492,-67722.842023
5065.904933,-8290.306550,11399.171507,-76303.111601
5065.907470,-20133.601622,-3849.070898,-82738.313784
5065.910008,25907.207970,20281.642811,-70327.566716
5065.912546,-4885.359217,-6365.771101,-85802.695776
5065.915083,-9622.677246,3849.070898,-77835.302597
5065.917621,7550.100608,20577.725188,-61900.516238
5065.920159,-10807.006753,-2516.700203,-80286.808190
5065.922697,10510.924376,6661.853478,-77835.302597
5065.925234,10362.883188,19541.436869,-74770.920605
5065.927772,-9770.718434,8438.347739,-79061.055394
5065.930310,1924.535449,7550.100608,-77988.521696
5065.932847,3552.988522,22502.260637,-68029.280222
5065.935385,3108.864956,296.082377,-81206.122788
5065.937923,-11547.212695,15100.201217,-70021.128517
5065.940460,20429.683999,13175.665768,-69714.690318
5065.942998,-45300.603650,-32569.061448,-87641.324971
5065.945536,14804.118840,6217.729913,-62206.954438
5065.948073,-13175.665768,-13915.871710,-77375.645298
5065.950611,-12731.542202,-5181.441594,-83810.847481
5065.953149,16728.654289,17764.942608,-77528.864398
5065.955686,-19245.354492,-16284.530724,-91012.145162
5065.958224,-7105.977043,4293.194464,-72779.072310
5065.960762,-3849.070898,4589.276840,-67569.622924
5065.963299,-4441.235652,-8438.347739,-76609.549800
5065.965837,-13323.706956,3404.947333,-73238.729609
5065.968375,5625.565159,16876.695478,-61747.297139
5065.970892,-14063.912898,-14804.118840,-78601.398095
5065.973409,-16580.613101,-4293.194464,-73085.510509
5065.975926,13767.830521,-3404.947333,-75537.016103
5065.978443,-21169.889941,-7105.977043,-83197.971083
5065.980960,3108.864956,1776.494261,-76456.330700
5065.983477,-11843.295072,5477.523971,-73698.386908
5065.985994,-3997.112087,-11399.171507,-82431.875585
5065.988511,-7402.059420,15544.324782,-69255.033019
5065.991027,29016.072926,18653.189738,-75383.797003
5065.993544,-25759.166782,1924.535449,-83351.190182
5065.996061,-444.123565,15248.242405,-68182.499322
5065.998578,9326.594869,27683.702231,-60981.201641
5066.001095,-11251.130318,-5625.565159,-76303.111601
5066.003612,15100.201217,15248.242405,-68029.280222
5066.006129,-592.164754,9326.594869,-76915.987999
5066.008646,-8142.265362,-4145.153275,-83657.628382
5066.011163,-3997.112087,15840.407159,-67876.061123
5066.013680,5477.523971,4441.235652,-74770.920605
5066.016197,-3404.947333,3108.864956,-78448.178995
5066.018714,10955.047942,22798.343014,-68795.375720
5066.021231,-3256.906145,6365.771101,-77835.302597
5066.023748,-1036.288319,12287.418637,-74617.701505
5066.026265,-1776.494261,12435.459826,-73085.510509
5066.028782,22798.343014,15248.242405,-71246.881314
5066.031299,-20873.807564,-15396.283594,-90092.830565
5066.033816,-30200.402434,4589.276840,-71400.100414
5066.036333,18061.024985,2516.700203,-64198.802732
5066.038850,-45596.686027,-24130.713709,-82125.437386
5066.041367,24870.919651,17024.736666,-59908.667944
5066.043884,-14804.118840,11547.212695,-63279.488135
5066.046401,-14656.077652,3404.947333,-70174.347617
5066.048918,9622.677246,23982.672521,-55771.752254
5066.051435,-19097.313304,-13323.706956,-83657.628382
5066.053952,-4737.318029,-3701.029710,-77835.302597
5066.056469,888.247130,9918.759623,-73851.606007
5066.058986,-15840.407159,-10807.006753,-92544.336158
5066.061503,-4589.276840,1480.411884,-74311.263306
5066.064020,-17468.860231,1184.329507,-73085.510509
5066.066537,-16136.489536,-19245.354492,-84730.162079
5066.069054,-888.247130,7105.977043,-70940.443115
5066.071584,-8438.347739,2516.700203,-70634.004916
5066.074113,-8882.471304,-1184.329507,-76149.892501
5066.076643,-6661.853478,-7698.141797,-76609.549800
5066.079172,-2072.576638,16580.613101,-68948.594820
5066.081701,29608.237680,10955.047942,-77528.864398
5066.084231,-20725.766376,6365.771101,-80746.465489
5066.086760,33457.308578,21762.054695,-72932.291410
5066.089290,-27535.661042,1776.494261,-84117.285680
5066.091819,4145.153275,-2812.782580,-88867.077768
5066.094349,15988.448347,10066.800811,-75230.577904
5066.096878,-9770.718434,-3552.988522,-81512.560987
5066.099407,3997.112087,16876.695478,-66190.651027
5066.101937,-444.123565,10807.006753,-63279.488135
5066.104466,-4441.235652,296.082377,-78907.836294
5066.106996,6957.935855,7846.182985,-75537.016103
5066.109525,8882.471304,23538.548956,-69255.033019
5066.112055,-5329.482782,4293.194464,-79673.931792
5066.114584,8586.388927,14656.077652,-70021.128517
5066.117114,-2812.782580,19097.313304,-69408.252119
5066.119643,12139.377449,3997.112087,-77988.521696
5066.122172,-18653.189738,15100.201217,-68642.156621
5066.124702,27239.578666,12435.459826,-69561.471218
5066.127231,-45596.686027,-31532.773129,-85955.914876
5066.129761,296.082377,-1184.329507,-68948.594820
5066.132290,3997.112087,-6365.771101,-77222.426198
5066.134820,-24278.754898,-7254.018232,-87794.544071
5066.137349,21465.972318,11695.253884,-77682.083497
5066.139878,-4293.194464,3849.070898,-73545.167808
5066.142408,-29312.155303,-14656.077652,-85802.695776
5066.144937,1480.411884,9474.636058,-66497.089226
5066.147467,-444.123565,-1480.411884,-75843.454302
5066.149996,-14804.118840,-2812.782580,-82278.656485
5066.152535,6809.894666,14804.118840,-61594.078039
5066.155074,-27387.619854,-7402.059420,-73391.948708
5066.157613,-8438.347739,-9918.759623,-74770.920605
5066.160151,7698.141797,5329.482782,-68642.156621
5066.162690,-18505.148550,-4885.359217,-81206.122788
5066.165229,6513.812290,7402.059420,-69714.690318
5066.167768,-32272.979071,-3256.906145,-73085.510509
5066.170307,17764.942608,11695.253884,-72319.415011
5066.172845,24278.754898,5921.647536,-76762.768900
5066.175384,-16580.613101,11103.089130,-76762.768900
5066.177923,32124.937883,23538.548956,-72779.072310
5066.180462,-26647.413912,-444.123565,-85189.819378
5066.183001,7105.977043,3701.029710,-82278.656485
5066.185540,12287.418637,5033.400406,-76303.111601
5066.188078,-10658.965565,-5477.523971,-86568.791274
5066.190617,8438.347739,20133.601622,-68642.156621
5066.193156,-5181.441594,4589.276840,-75996.673402
5066.195695,-9622.677246,-9622.677246,-86722.010374
5066.198234,14508.036463,15988.448347,-68029.280222
5066.200772,-296.082377,8882.471304,-80440.027290
