#time,accel_x,accel_y,accel_z
617.602599,-1332.370696,3552.988522,-75383.797003
617.605142,-2812.782580,2220.617826,-76456.330700
617.607685,888.247130,6217.729913,-74617.701505
617.610228,0.000000,4885.359217,-75077.358804
617.612771,15396.283594,-592.164754,-73698.386908
617.615314,1480.411884,-148.041188,-74924.139704
617.617857,4589.276840,-1036.288319,-79061.055394
617.620400,-1776.494261,4737.318029,-77682.083497
617.622943,7254.018232,8882.471304,-74770.920605
617.625486,1184.329507,12583.501014,-73391.948708
617.628030,-1776.494261,1776.494261,-77988.521696
617.630573,-5773.606348,-740.205942,-78294.959896
617.633116,-6957.935855,1776.494261,-75383.797003
617.635659,2664.741391,3404.947333,-72779.072310
617.638202,-740.205942,9178.553681,-73085.510509
617.640745,-296.082377,888.247130,-76915.987999
617.643288,-7550.100608,6809.894666,-74004.825107
617.645831,-9030.512492,-7698.141797,-77069.207099
617.648374,-4589.276840,-444.123565,-76303.111601
617.650917,6069.688724,2960.823768,-78754.617194
617.653460,-11695.253884,5773.606348,-72625.853210
617.656003,-9918.759623,-148.041188,-74311.263306
617.658547,-3701.029710,3404.947333,-73545.167808
617.661090,2516.700203,740.205942,-77222.426198
617.663633,-1480.411884,4441.235652,-76149.892501
617.666176,-4737.318029,2664.741391,-75996.673402
617.668719,-10658.965565,-444.123565,-79061.055394
617.671271,-2960.823768,-2368.659014,-77682.083497
617.673823,-3404.947333,6365.771101,-74770.920605
617.676375,2812.782580,3552.988522,-75690.235202
617.678927,444.123565,4293.194464,-72779.072310
617.681479,-8142.265362,-148.041188,-74924.139704
617.684031,-7254.018232,3404.947333,-72779.072310
617.686583,2812.782580,2220.617826,-74617.701505
617.689135,444.123565,2664.741391,-74924.139704
617.691687,-8586.388927,-3849.070898,-76149.892501
617.694239,-11843.295072,-7698.141797,-75230.577904
617.696791,-296.082377,1776.494261,-75077.358804
617.699343,-1628.453072,7550.100608,-75383.797003
617.701895,740.205942,1036.288319,-77682.083497
617.704447,-3849.070898,5477.523971,-75383.797003
617.706999,-3997.112087,-8882.471304,-75230.577904
617.709551,-8882.471304,5329.482782,-70174.347617
617.712103,444.123565,-6809.894666,-77375.645298
617.714655,-3997.112087,2368.659014,-77835.302597
617.717207,14063.912898,-3849.070898,-80593.246390
617.719759,-33605.349767,296.082377,-78141.740796
617.722311,32272.979071,19097.313304,-70787.224015
617.724863,-10066.800811,-11843.295072,-82585.094684
617.727415,-6513.812290,12879.583391,-70787.224015
617.729967,21614.013506,15692.365970,-75077.358804
617.732520,-41303.491564,-17468.860231,-91165.364262
617.735072,31236.690752,26203.290347,-70021.128517
617.737624,-11251.130318,-2664.741391,-81512.560987
617.740176,-888.247130,11251.130318,-72012.976812
617.742728,11399.171507,15988.448347,-69408.252119
617.745280,-17912.983796,-1776.494261,-79827.150892
617.747832,6069.688724,19689.478057,-71553.319513
617.750384,10807.006753,5033.400406,-72012.976812
617.752936,-13027.624579,-4441.235652,-79520.712692
617.755488,7402.059420,10510.924376,-77222.426198
617.758040,296.082377,6365.771101,-74770.920605
617.760592,-7254.018232,2516.700203,-76149.892501
617.763144,8438.347739,10362.883188,-75996.673402
617.765696,-1776.494261,1184.329507,-82891.532884
617.768248,-3108.864956,4293.194464,-77682.083497
617.770800,2072.576638,5329.482782,-69714.690318
617.773359,-1776.494261,4293.194464,-73698.386908
617.775917,148.041188,2960.823768,-75690.235202
617.778476,296.082377,3997.112087,-75690.235202
617.781035,-592.164754,1776.494261,-76149.892501
617.783594,1628.453072,5181.441594,-75077.358804
617.786152,3849.070898,6809.894666,-77988.521696
617.788711,740.205942,10955.047942,-75690.235202
617.791270,-1036.288319,10066.800811,-74770.920605
617.793829,-888.247130,5625.565159,-75537.016103
617.796387,7402.059420,4589.276840,-75690.235202
617.798946,-7254.018232,4885.359217,-75077.358804
617.801505,2516.700203,4589.276840,-73391.948708
617.804064,-7994.224174,10066.800811,-74004.825107
617.806622,2812.782580,3701.029710,-75230.577904
617.809181,1036.288319,17468.860231,-72166.195912
617.811740,5477.523971,-1332.370696,-79980.369991
617.814299,-5625.565159,15988.448347,-71400.100414
617.816858,14063.912898,-444.123565,-79673.931792
617.819416,-26943.496289,-8734.430116,-79367.493593
617.821975,3552.988522,17320.819043,-69561.471218
617.824534,8438.347739,-1036.288319,-74770.920605
617.827093,-37750.503042,-6513.812290,-70174.347617
617.829651,29904.320057,22502.260637,-56384.628653
617.832210,-26351.331535,-23982.672521,-86109.133975
617.834769,7698.141797,11695.253884,-78601.398095
617.837328,6365.771101,5625.565159,-75690.235202
617.839886,-21465.972318,-6957.935855,-80133.589091
617.842445,14359.995275,6957.935855,-73085.510509
617.845004,-6513.812290,-9770.718434,-78141.740796
617.847563,-13027.624579,-6957.935855,-83657.628382
617.850121,9770.718434,8586.388927,-74924.139704
617.852680,-20133.601622,-3108.864956,-79980.369991
617.855239,-8290.306550,-3404.947333,-78601.398095
617.857798,2664.741391,5921.647536,-71400.100414
617.860356,-7994.224174,-2220.617826,-76762.768900
617.862915,2368.659014,6661.853478,-72932.291410
617.865474,-2516.700203,3701.029710,-73698.386908
617.868033,-11251.130318,148.041188,-78907.836294
617.870591,148.041188,2960.823768,-75690.235202
617.873150,-1036.288319,6217.729913,-73698.386908
617.875715,-5477.523971,2368.659014,-75843.454302
617.878279,-6957.935855,1924.535449,-75537.016103
617.880844,-2960.823768,1776.494261,-74004.825107
617.883408,-6217.729913,-1036.288319,-75996.673402
617.885973,-4441.235652,-1628.453072,-75843.454302
617.888537,-6365.771101,-6809.894666,-77682.083497
617.891102,-6365.771101,1924.535449,-77069.207099
617.893666,-6661.853478,6809.894666,-75230.577904
617.896231,-888.247130,888.247130,-75996.673402
617.898795,-6365.771101,4145.153275,-75843.454302
617.901359,-296.082377,-6365.771101,-76762.768900
617.903924,-6957.935855,3701.029710,-74770.920605
617.906488,888.247130,-5477.523971,-77528.864398
617.909053,-8586.388927,8290.306550,-70480.785816
617.911617,12583.501014,-7846.182985,-80746.465489
617.914182,-31532.773129,-2072.576638,-78754.617194
617.916746,35529.885216,19541.436869,-72166.195912
617.919311,-9918.759623,-7994.224174,-81818.999186
617.921875,-4441.235652,15396.283594,-68948.594820
617.924440,34641.638086,30052.361245,-66343.870127
617.927004,-27387.619854,-10214.842000,-77682.083497
617.929569,-4441.235652,19689.478057,-64045.583633
617.932133,12287.418637,9474.636058,-61287.639840
617.934698,-15692.365970,5921.647536,-70327.566716
617.937262,17912.983796,13619.789333,-73698.386908
617.939827,-6217.729913,6365.771101,-68795.375720
617.942391,-4885.359217,9770.718434,-72166.195912
617.944956,15840.407159,18061.024985,-63892.364533
617.947520,-8734.430116,-3701.029710,-78601.398095
617.950085,8438.347739,8142.265362,-76456.330700
617.952649,-1924.535449,2516.700203,-76303.111601
617.955214,-5625.565159,5477.523971,-76149.892501
617.957778,2812.782580,10658.965565,-76149.892501
617.960343,1480.411884,4293.194464,-77988.521696
617.962907,-6217.729913,5477.523971,-70940.443115
617.965472,444.123565,3404.947333,-71553.319513
617.968036,1036.288319,6661.853478,-72932.291410
617.970601,2072.576638,1036.288319,-79061.055394
617.973165,148.041188,6513.812290,-74617.701505
617.975730,888.247130,7698.141797,-73698.386908
617.978270,444.123565,10807.006753,-74311.263306
617.980810,2368.659014,9178.553681,-77528.864398
617.983350,-2516.700203,6513.812290,-76915.987999
617.985890,1628.453072,8290.306550,-74770.920605
617.988430,4737.318029,12435.459826,-74311.263306
617.990970,-5033.400406,-2368.659014,-78754.617194
617.993511,-444.123565,8142.265362,-74924.139704
617.996051,-3849.070898,-2516.700203,-77682.083497
617.998591,11843.295072,11103.089130,-75077.358804
618.001131,-8142.265362,-6217.729913,-82738.313784
618.003671,10807.006753,15988.448347,-72166.195912
618.006211,-8290.306550,-7402.059420,-84730.162079
618.008751,-5625.565159,18061.024985,-70940.443115
618.011292,15100.201217,-3849.070898,-81359.341888
618.013832,-38638.750172,-10510.924376,-75843.454302
618.016372,32272.979071,14211.954086,-71706.538613
618.018912,-17468.860231,-25315.043216,-90552.487864
618.021452,-19985.560434,888.247130,-80440.027290
618.023992,19541.436869,12139.377449,-68948.594820
618.026532,-29164.114115,2220.617826,-74464.482406
618.029073,-7550.100608,2368.659014,-76762.768900
618.031613,9030.512492,9622.677246,-66803.527426
618.034153,-17912.983796,-13767.830521,-78294.959896
618.036693,5773.606348,10658.965565,-66037.431928
618.039233,-148.041188,-3404.947333,-75690.235202
618.041773,-9918.759623,6809.894666,-75996.673402
618.044313,2812.782580,8142.265362,-72932.291410
618.046854,-14656.077652,-5625.565159,-77682.083497
618.049394,-1332.370696,3997.112087,-74770.920605
618.051934,2072.576638,5477.523971,-73238.729609
618.054474,-9474.636058,-2664.741391,-79827.150892
618.057014,-2960.823768,3108.864956,-76456.330700
618.059554,-3256.906145,5921.647536,-70940.443115
618.062094,-3849.070898,6069.688724,-72932.291410
618.064635,-6957.935855,592.164754,-77988.521696
618.067175,-5329.482782,1036.288319,-79214.274493
618.069715,-5477.523971,296.082377,-74464.482406
618.072255,-7846.182985,-5329.482782,-73698.386908
618.074795,-148.041188,-3256.906145,-75537.016103
618.077335,-592.164754,1480.411884,-76303.111601
618.079885,-4589.276840,5773.606348,-76609.549800
618.082434,-6365.771101,-2220.617826,-76609.549800
618.084984,-6513.812290,2368.659014,-75077.358804
618.087533,-2664.741391,-5477.523971,-75383.797003
618.090083,1480.411884,6809.894666,-71553.319513
618.092632,-6957.935855,-5329.482782,-78141.740796
618.095181,-2664.741391,12731.542202,-68642.156621
618.097731,-2220.617826,-14211.954086,-79214.274493
618.100280,-19689.478057,7550.100608,-68948.594820
618.102830,29016.072926,9770.718434,-78601.398095
618.105379,-31828.855506,-9622.677246,-86415.572174
618.107929,18949.272115,31088.649564,-65118.117330
618.110478,8734.430116,1184.329507,-75537.016103
618.113028,-24130.713709,-592.164754,-77682.083497
618.115577,36714.214723,7550.100608,-77835.302597
618.118126,-25315.043216,-13471.748144,-91778.240660
618.120676,14063.912898,3849.070898,-82278.656485
618.123225,4589.276840,4737.318029,-76609.549800
618.125775,-14211.954086,-2220.617826,-79980.369991
618.128324,11547.212695,14359.995275,-74311.263306
618.130874,8882.471304,6513.812290,-74924.139704
618.133423,-4441.235652,2368.659014,-76456.330700
618.135973,8438.347739,7105.977043,-74004.825107
618.138522,-10955.047942,-2664.741391,-78448.178995
618.141071,3256.906145,7105.977043,-75230.577904
618.143621,6809.894666,8142.265362,-72625.853210
618.146170,1480.411884,2220.617826,-79214.274493
618.148720,-3701.029710,5477.523971,-79214.274493
618.151269,-5033.400406,3404.947333,-77528.864398
618.153819,-3701.029710,3701.029710,-77069.207099
618.156368,7550.100608,7698.141797,-72932.291410
618.158918,4737.318029,6957.935855,-77222.426198
618.161446,2368.659014,7698.141797,-75537.016103
618.163974,-5477.523971,11251.130318,-71093.662214
618.166502,740.205942,6661.853478,-74464.482406
618.169031,6661.853478,8734.430116,-74924.139704
618.171559,2368.659014,12435.459826,-76149.892501
618.174087,1184.329507,2812.782580,-76915.987999
618.176615,-444.123565,5773.606348,-77069.207099
618.179143,-7698.141797,-1628.453072,-78448.178995
618.181672,10807.006753,9770.718434,-74004.825107
618.184200,-10362.883188,-1776.494261,-78601.398095
618.186728,15840.407159,15692.365970,-69561.471218
618.189256,-14359.995275,-3997.112087,-80133.589091
618.191785,16876.695478,17912.983796,-70787.224015
618.194313,3701.029710,-12139.377449,-85036.600278
618.196841,-22206.178260,444.123565,-72932.291410
618.199369,21317.931130,17172.777854,-72779.072310
618.201897,-2368.659014,-21910.095883,-88867.077768
618.204426,-27683.702231,-2664.741391,-79061.055394
618.206954,21021.848753,17172.777854,-66343.870127
618.209482,-29164.114115,3997.112087,-73545.167808
618.212010,0.000000,9178.553681,-74617.701505
618.214539,296.082377,2812.782580,-71400.100414
618.217067,-16728.654289,-3256.906145,-78601.398095
618.219595,8290.306550,13323.706956,-65271.336430
618.222123,-17172.777854,-5921.647536,-76762.768900
618.224651,1776.494261,7402.059420,-79061.055394
618.227180,-8734.430116,3997.112087,-77222.426198
618.229708,-7846.182985,-1184.329507,-76762.768900
618.232236,0.000000,2220.617826,-75690.235202
618.234764,-5033.400406,5625.565159,-74770.920605
618.237293,-7105.977043,-3108.864956,-77988.521696
618.239821,-6069.688724,8734.430116,-71400.100414
618.242349,1184.329507,3108.864956,-73545.167808
618.244877,-4145.153275,3849.070898,-74158.044206
618.247405,-7846.182985,592.164754,-75996.673402
618.249934,-6661.853478,296.082377,-76456.330700
618.252462,-8882.471304,-5033.400406,-75230.577904
618.254990,2960.823768,1036.288319,-72319.415011
618.257518,-3108.864956,2812.782580,-75843.454302
618.260047,-8882.471304,3256.906145,-77069.207099
618.262558,0.000000,740.205942,-78448.178995
618.265070,-10066.800811,-1036.288319,-76609.549800
618.267582,6217.729913,-5033.400406,-76609.549800
618.270094,-3404.947333,5477.523971,-73851.606007
618.272606,-1628.453072,-2368.659014,-79214.274493
618.275117,-16728.654289,10214.842000,-72319.415011
618.277629,1924.535449,-14211.954086,-79520.712692
618.280141,-24722.878463,2368.659014,-73085.510509
618.282653,33901.432144,11399.171507,-78754.617194
618.285165,-33309.267390,-8290.306550,-87181.667672
618.287676,10362.883188,26943.496289,-66956.746525
618.290188,17912.983796,7698.141797,-73851.606007
618.292700,-26055.249158,-6365.771101,-83504.409282
618.295212,35529.885216,12287.418637,-77988.521696
618.297724,-21169.889941,-14359.995275,-92237.897959
618.300235,7105.977043,3701.029710,-79980.369991
618.302747,17764.942608,19245.354492,-69714.690318
618.305259,-15692.365970,-1628.453072,-76762.768900
618.307771,7105.977043,12583.501014,-74158.044206
618.310283,11103.089130,8142.265362,-73545.167808
618.312794,-6957.935855,-592.164754,-78907.836294
618.315306,6217.729913,7402.059420,-75230.577904
618.317818,-7402.059420,-1924.535449,-76149.892501
618.320330,-1332.370696,4885.359217,-74924.139704
618.322842,7846.182985,7846.182985,-71859.757712
618.325353,1184.329507,2516.700203,-79827.150892
618.327865,-3108.864956,5773.606348,-74924.139704
618.330377,296.082377,1036.288319,-72472.634111
618.332889,-2664.741391,5477.523971,-73238.729609
618.335401,8586.388927,6513.812290,-76915.987999
618.337912,2072.576638,8142.265362,-75843.454302
618.340424,-5921.647536,7402.059420,-73085.510509
618.342936,3108.864956,6661.853478,-74004.825107
618.345448,8586.388927,13027.624579,-74464.482406
618.347960,-5329.482782,-296.082377,-80899.684589
618.350471,3701.029710,7105.977043,-73238.729609
618.352983,-8142.265362,4885.359217,-73851.606007
618.355495,888.247130,3404.947333,-73238.729609
618.358007,3701.029710,13323.706956,-74770.920605
618.360519,3701.029710,2220.617826,-79673.931792
618.363046,-3404.947333,16580.613101,-71553.319513
618.365574,14508.036463,3997.112087,-76149.892501
618.368101,-23538.548956,3552.988522,-69101.813920
618.370629,30496.484810,14656.077652,-70174.347617
618.373157,8734.430116,-3108.864956,-74770.920605
618.375684,-41303.491564,-6809.894666,-69408.252119
618.378212,30940.608376,21465.972318,-56384.628653
618.380740,-25759.166782,-20873.807564,-85189.819378
618.383267,5477.523971,10362.883188,-77069.207099
618.385795,6069.688724,10510.924376,-72932.291410
618.388323,-25463.084405,-8438.347739,-79367.493593
618.390850,20281.642811,8586.388927,-70634.004916
618.393378,-13323.706956,-9474.636058,-78448.178995
618.395906,-13767.830521,-1184.329507,-76456.330700
618.398433,5181.441594,6217.729913,-72166.195912
618.400961,-6957.935855,296.082377,-77222.426198
618.403488,7550.100608,7254.018232,-76303.111601
618.406016,-6513.812290,2072.576638,-75230.577904
618.408544,-13323.706956,0.000000,-78141.740796
618.411071,-3701.029710,3849.070898,-75537.016103
618.413599,-3256.906145,1332.370696,-76915.987999
618.416127,-2664.741391,5329.482782,-76149.892501
618.418654,1036.288319,3849.070898,-72779.072310
618.421182,-11843.295072,-2516.700203,-76915.987999
618.423710,-6957.935855,-148.041188,-75843.454302
618.426237,1184.329507,-1924.535449,-78448.178995
618.428765,-740.205942,-740.205942,-78754.617194
618.431292,-5033.400406,3997.112087,-74464.482406
618.433820,-9918.759623,-1924.535449,-75077.358804
618.436348,-4885.359217,6365.771101,-73238.729609
618.438875,-5033.400406,-888.247130,-74004.825107
618.441403,3404.947333,6661.853478,-71706.538613
618.443931,-10807.006753,-4145.153275,-77069.207099
618.446458,3108.864956,13471.748144,-69255.033019
618.448986,-24722.878463,-8882.471304,-78448.178995
618.451514,10658.965565,15248.242405,-66956.746525
618.454041,-1776.494261,-15692.365970,-82431.875585
618.456569,-17764.942608,13471.748144,-68488.937521
618.459097,33013.185013,20281.642811,-73851.606007
618.461624,-35085.761651,-5329.482782,-83810.847481
618.464138,18061.024985,28868.031738,-66190.651027
618.466650,1332.370696,740.205942,-66497.089226
618.469162,-27535.661042,7105.977043,-69867.909418
618.471674,21614.013506,10362.883188,-69561.471218
618.474186,7550.100608,3108.864956,-75996.673402
618.476697,-8882.471304,2368.659014,-81512.560987
618.479209,10214.842000,11399.171507,-71553.319513
618.481721,-7402.059420,-2516.700203,-82738.313784
618.484233,6809.894666,11251.130318,-75996.673402
618.486745,2812.782580,8734.430116,-72472.634111
618.489257,-5181.441594,2368.659014,-74311.263306
618.491769,-3256.906145,9178.553681,-72472.634111
618.494281,-5033.400406,296.082377,-80746.465489
618.496793,3108.864956,8142.265362,-74158.044206
618.499305,1924.535449,2812.782580,-75383.797003
618.501817,-3552.988522,7698.141797,-70634.004916
618.504329,1480.411884,2516.700203,-75537.016103
618.506841,4293.194464,5625.565159,-73698.386908
618.509353,444.123565,8882.471304,-75843.454302
618.511865,3552.988522,9474.636058,-74924.139704
618.514377,2368.659014,10066.800811,-76456.330700
618.516889,-4293.194464,9622.677246,-75230.577904
618.519401,3256.906145,1480.411884,-72472.634111
618.521913,2516.700203,5329.482782,-75230.577904
618.524425,-7994.224174,-3256.906145,-79673.931792
618.526937,9770.718434,9918.759623,-72625.853210
618.529449,-15248.242405,888.247130,-77375.645298
618.531961,15248.242405,14804.118840,-69101.813920
618.534473,-13175.665768,3552.988522,-75077.358804
618.536985,23390.507767,14656.077652,-74617.701505
618.539497,-11991.336260,-8142.265362,-84117.285680
618.542009,-35381.844028,-7698.141797,-73851.606007
618.544521,27535.661042,9178.553681,-70787.224015
618.547033,-28571.949361,-27831.743419,-89020.296868
618.549545,-5329.482782,3997.112087,-80133.589091
618.552057,17024.736666,7254.018232,-74311.263306
618.554568,-22798.343014,2220.617826,-78907.836294
618.557080,5329.482782,8586.388927,-77222.426198
618.559592,-5921.647536,-3404.947333,-74004.825107
618.562104,-8734.430116,-1628.453072,-82431.875585
618.564632,3108.864956,-888.247130,-73851.606007
618.567160,-24426.796086,-10214.842000,-79520.712692
618.569688,3108.864956,5033.400406,-75690.235202
618.572216,-6217.729913,5773.606348,-71553.319513
618.574744,-4441.235652,4737.318029,-72319.415011
618.577272,5181.441594,5329.482782,-74924.139704
618.579800,-11399.171507,-3256.906145,-81359.341888
618.582328,-7402.059420,-1036.288319,-77682.083497
618.584856,-2368.659014,5921.647536,-75383.797003
618.587384,-12287.418637,1776.494261,-78754.617194
618.589913,444.123565,4589.276840,-74004.825107
618.592441,-7402.059420,-2072.576638,-75996.673402
618.594969,-2220.617826,-2368.659014,-76149.892501
618.597497,592.164754,3256.906145,-72319.415011
618.600025,-10658.965565,-6513.812290,-76456.330700
618.602553,3701.029710,4589.276840,-73851.606007
618.605081,-6513.812290,592.164754,-78754.617194
618.607609,-4293.194464,-1184.329507,-76149.892501
618.610137,-6661.853478,2516.700203,-78754.617194
618.612665,1184.329507,-1184.329507,-78294.959896
618.615193,-17616.901420,4145.153275,-73698.386908
618.617721,6365.771101,-14359.995275,-79061.055394
618.620249,-22946.384202,3404.947333,-72319.415011
618.622777,26943.496289,8438.347739,-79520.712692
618.625305,-31828.855506,-10510.924376,-85649.476676
618.627833,14508.036463,30792.567187,-66650.308326
618.630361,16284.530724,6513.812290,-76149.892501
618.632889,-23242.466579,-2664.741391,-80440.027290
618.635417,35529.885216,8142.265362,-79214.274493
618.637945,-17320.819043,-15100.201217,-91165.364262
618.640473,2960.823768,296.082377,-80899.684589
618.643001,10510.924376,19393.395680,-68948.594820
618.645529,-14804.118840,1628.453072,-80899.684589
618.648057,5773.606348,9474.636058,-78141.740796
618.650585,8882.471304,6513.812290,-74464.482406
618.653113,-2516.700203,-1036.288319,-79520.712692
618.655641,6365.771101,9030.512492,-76303.111601
618.658169,-3849.070898,444.123565,-76762.768900
618.660697,-3404.947333,2368.659014,-74770.920605
618.663225,2220.617826,4589.276840,-73851.606007
618.665766,148.041188,740.205942,-78294.959896
618.668308,-1036.288319,10214.842000,-77375.645298
618.670849,-2368.659014,1628.453072,-78754.617194
618.673391,-3108.864956,2960.823768,-73698.386908
618.675932,5477.523971,7402.059420,-78754.617194
618.678474,7846.182985,11399.171507,-79520.712692
618.681015,2368.659014,13915.871710,-76609.549800
618.683557,-4885.359217,5625.565159,-72779.072310
618.686098,-2516.700203,2960.823768,-73698.386908
618.688640,2516.700203,8882.471304,-76456.330700
618.691181,2812.782580,-740.205942,-79367.493593
618.693722,4145.153275,13915.871710,-76303.111601
618.696264,-1628.453072,-2960.823768,-81052.903688
618.698805,4293.194464,12731.542202,-73851.606007
618.701347,1184.329507,-3701.029710,-83351.190182
618.703888,-592.164754,20429.683999,-70787.224015
618.706430,14063.912898,444.123565,-80746.465489
618.708971,-40267.203245,-12139.377449,-85189.819378
618.711513,-13471.748144,8734.430116,-72319.415011
618.714054,18949.272115,-4441.235652,-74464.482406
618.716596,-31680.814318,-8438.347739,-75537.016103
618.719137,23094.425390,20133.601622,-67109.965625
618.721679,-13915.871710,6809.894666,-75383.797003
618.724220,-11843.295072,148.041188,-76609.549800
618.726762,9178.553681,8882.471304,-66190.651027
618.729303,-13619.789333,-6217.729913,-77528.864398
618.731845,3256.906145,7698.141797,-68795.375720
618.734386,-9326.594869,-8586.388927,-78601.398095
618.736928,-6661.853478,-9918.759623,-79367.493593
618.739469,4293.194464,9622.677246,-74924.139704
618.742010,-2220.617826,3256.906145,-78141.740796
618.744552,-7254.018232,5329.482782,-77222.426198
618.747093,-6069.688724,2664.741391,-72932.291410
618.749635,-5477.523971,-592.164754,-75537.016103
618.752176,-7846.182985,5477.523971,-76303.111601
618.754718,5033.400406,5033.400406,-72319.415011
618.757259,-7254.018232,-1036.288319,-74004.825107
618.759801,-8290.306550,296.082377,-73085.510509
618.762342,-10510.924376,-3108.864956,-75077.358804
618.764884,-1924.535449,-8586.388927,-78294.959896
618.767436,3701.029710,6661.853478,-72932.291410
618.769989,-10214.842000,2812.782580,-73851.606007
618.772542,3849.070898,8734.430116,-71859.757712
618.775094,-7254.018232,1036.288319,-78141.740796
618.777647,2516.700203,4885.359217,-74924.139704
618.780200,-19541.436869,-9178.553681,-77528.864398
618.782753,14656.077652,11843.295072,-68488.937521
618.785305,-20577.725188,-16580.613101,-81665.780087
618.787858,-6069.688724,19985.560434,-64811.679131
618.790411,24426.796086,13471.748144,-76149.892501
618.792963,-28719.990550,-148.041188,-84883.381178
618.795516,30496.484810,33309.267390,-68029.280222
618.798069,-22354.219448,-1628.453072,-70634.004916
618.800621,-12287.418637,9474.636058,-67722.842023
618.803174,17616.901420,12287.418637,-63739.145434
618.805727,-16876.695478,-888.247130,-73851.606007
618.808279,9622.677246,16876.695478,-74004.825107
618.810832,-4145.153275,15396.283594,-65118.117330
618.813385,-4293.194464,6365.771101,-76609.549800
618.815938,9326.594869,13767.830521,-74004.825107
618.818490,7105.977043,9030.512492,-73238.729609
618.821043,-5625.565159,4885.359217,-75077.358804
618.823596,148.041188,7254.018232,-73238.729609
618.826148,-2812.782580,740.205942,-75996.673402
618.828701,888.247130,6217.729913,-74617.701505
618.831254,4293.194464,6513.812290,-74158.044206
618.833806,-4293.194464,5329.482782,-75077.358804
618.836359,1628.453072,3404.947333,-75230.577904
618.838912,0.000000,7698.141797,-74158.044206
618.841464,7698.141797,8290.306550,-76149.892501
618.844017,-592.164754,17024.736666,-73238.729609
618.846570,-740.205942,6365.771101,-74464.482406
618.849123,-296.082377,3256.906145,-75690.235202
618.851675,-9622.677246,888.247130,-74924.139704
618.854228,13619.789333,11547.212695,-70787.224015
618.856781,-12139.377449,10362.883188,-73851.606007
618.859333,6957.935855,12435.459826,-71246.881314
618.861886,-15692.365970,9918.759623,-70634.004916
618.864439,22354.219448,7846.182985,-71246.881314
618.866991,-17172.777854,888.247130,-74464.482406
618.869554,12583.501014,16432.571912,-71400.100414
618.872116,-5921.647536,-10510.924376,-79827.150892
618.874678,-32421.020260,-3849.070898,-71553.319513
618.877240,23390.507767,14359.995275,-60368.325242
618.879802,-29016.072926,-16728.654289,-80593.246390
618.882365,12139.377449,14359.995275,-72625.853210
618.884927,5921.647536,15988.448347,-70940.443115
618.887489,-19985.560434,-10066.800811,-79061.055394
618.890051,6365.771101,888.247130,-79520.712692
618.892613,-1776.494261,1036.288319,-74158.044206
618.895175,-16580.613101,-5921.647536,-79673.931792
618.897738,-4589.276840,7698.141797,-71093.662214
618.900300,-7550.100608,-5329.482782,-78907.836294
618.902862,-2220.617826,2664.741391,-80899.684589
618.905424,3108.864956,7254.018232,-72472.634111
618.907986,-7254.018232,1628.453072,-75077.358804
618.910549,-3108.864956,7846.182985,-69867.909418
618.913111,-1776.494261,-888.247130,-75230.577904
618.915673,-11103.089130,-1332.370696,-77222.426198
618.918235,-592.164754,4885.359217,-76303.111601
618.920797,-5625.565159,444.123565,-79214.274493
618.923360,-17616.901420,-8142.265362,-79980.369991
618.925922,444.123565,-1480.411884,-73851.606007
618.928484,-1924.535449,-1184.329507,-77375.645298
618.931046,-7105.977043,2220.617826,-76609.549800
618.933608,6513.812290,11251.130318,-73085.510509
618.936171,-15100.201217,-1332.370696,-79061.055394
618.938733,7698.141797,6957.935855,-72932.291410
618.941295,-18653.189738,-5181.441594,-77375.645298
618.943857,12879.583391,1332.370696,-78448.178995
618.946419,-30200.402434,-12139.377449,-83964.066581
618.948981,16876.695478,21317.931130,-65271.336430
618.951544,29756.278868,14804.118840,-77528.864398
618.954106,-26795.455100,-296.082377,-83197.971083
618.956668,23390.507767,31384.731941,-67876.061123
618.959230,-13915.871710,-2072.576638,-68488.937521
618.961792,-14656.077652,10807.006753,-65424.555529
618.964355,19393.395680,10214.842000,-67263.184724
618.966917,-14359.995275,-296.082377,-72779.072310
618.969479,7105.977043,17024.736666,-74770.920605
618.972048,-1924.535449,17320.819043,-65577.774629
618.974618,-8142.265362,4145.153275,-75077.358804
618.977187,13619.789333,13027.624579,-70787.224015
618.979756,4441.235652,3108.864956,-76609.549800
618.982325,1332.370696,6809.894666,-77835.302597
618.984895,-5773.606348,11547.212695,-73391.948708
618.987464,-5033.400406,-2072.576638,-78141.740796
618.990033,-2368.659014,7402.059420,-72472.634111
618.992603,3108.864956,7402.059420,-72932.291410
618.995172,-1924.535449,7402.059420,-73698.386908
618.997741,2516.700203,4885.359217,-78754.617194
619.000311,7254.018232,10955.047942,-76762.768900
619.002880,-2516.700203,10807.006753,-76456.330700
619.005449,888.247130,9918.759623,-72319.415011
619.008019,0.000000,6069.688724,-74004.825107
619.010588,-1924.535449,8438.347739,-73085.510509
619.013157,5181.441594,4589.276840,-72779.072310
619.015726,1036.288319,10955.047942,-75996.673402
619.018296,3108.864956,6069.688724,-74770.920605
619.020865,-7550.100608,12731.542202,-72166.195912
619.023434,15396.283594,1924.535449,-75996.673402
619.026004,-13767.830521,9326.594869,-69255.033019
619.028573,24130.713709,16432.571912,-66956.746525
619.031142,-31384.731941,-16136.489536,-83197.971083
619.033712,-17024.736666,8290.306550,-72779.072310
619.036281,17764.942608,-592.164754,-72319.415011
619.038850,-34345.555709,-10955.047942,-74617.701505
619.041419,20873.807564,20281.642811,-62513.392637
619.043989,-7550.100608,4737.318029,-74004.825107
619.046558,-14508.036463,1036.288319,-76915.987999
619.049127,13175.665768,12287.418637,-65271.336430
619.051697,-11843.295072,-5329.482782,-78141.740796
619.054266,-12287.418637,-2072.576638,-75690.235202
619.056835,-1924.535449,4145.153275,-70634.004916
619.059405,-10658.965565,-8142.265362,-78907.836294
619.061974,-2072.576638,11251.130318,-72472.634111
619.064543,444.123565,2812.782580,-76456.330700
619.067112,-5033.400406,0.000000,-79061.055394
619.069682,-5921.647536,10066.800811,-74924.139704
619.072251,-6513.812290,-1332.370696,-76915.987999
619.074826,-6809.894666,3997.112087,-71859.757712
619.077401,-3552.988522,-1184.329507,-78601.398095
619.079977,-10510.924376,-1332.370696,-78754.617194
619.082552,-8882.471304,-7254.018232,-75077.358804
619.085127,-4737.318029,1332.370696,-72166.195912
619.087702,-3256.906145,1036.288319,-75843.454302
619.090277,3997.112087,740.205942,-74464.482406
619.092852,-9474.636058,3997.112087,-76915.987999
619.095427,-740.205942,592.164754,-77069.207099
619.098003,-7402.059420,740.205942,-76303.111601
619.100578,1184.329507,-15396.283594,-80746.465489
619.103153,-18357.107362,6069.688724,-72012.976812
619.105728,18801.230927,-592.164754,-81359.341888
619.108303,-34493.596897,-8586.388927,-84576.942979
619.110878,28127.825796,28719.990550,-69561.471218
619.113454,7105.977043,5033.400406,-76609.549800
619.116029,-14804.118840,5181.441594,-77222.426198
619.118604,26499.372724,3256.906145,-77222.426198
619.121179,-18505.148550,-14508.036463,-82738.313784
619.123754,-7254.018232,-2960.823768,-81359.341888
619.126329,19097.313304,15248.242405,-71706.538613
619.128904,-15248.242405,-5477.523971,-89020.296868
619.131480,2072.576638,10658.965565,-78907.836294
619.134055,-592.164754,1628.453072,-75843.454302
619.136630,-3552.988522,2072.576638,-77069.207099
619.139205,12879.583391,13619.789333,-73851.606007
619.141780,1628.453072,-4441.235652,-79214.274493
619.144355,-5329.482782,1036.288319,-75383.797003
619.146931,3997.112087,5773.606348,-74311.263306
619.149506,2072.576638,-1184.329507,-77988.521696
619.152081,-1628.453072,7254.018232,-75996.673402
619.154656,11103.089130,9326.594869,-74464.482406
619.157231,-1332.370696,9918.759623,-74924.139704
619.159806,-5181.441594,3849.070898,-77835.302597
619.162381,3849.070898,8142.265362,-74158.044206
619.164957,3552.988522,9326.594869,-74770.920605
619.167532,-4885.359217,-592.164754,-77069.207099
619.170107,7402.059420,11695.253884,-75537.016103
619.172682,-14508.036463,888.247130,-81206.122788
619.175257,10214.842000,11399.171507,-73545.167808
619.177837,-7846.182985,-1036.288319,-77682.083497
619.180417,23982.672521,14359.995275,-72932.291410
619.182997,-10510.924376,-8438.347739,-83810.847481
619.185577,-17024.736666,8882.471304,-69408.252119
619.188157,17172.777854,4441.235652,-70021.128517
619.190737,-43524.109390,-21317.931130,-78448.178995
619.193317,27239.578666,13027.624579,-65577.774629
619.195896,-4737.318029,4145.153275,-75996.673402
619.198476,-25315.043216,-3552.988522,-80286.808190
619.201056,8438.347739,11251.130318,-76609.549800
619.203636,-2072.576638,-3849.070898,-75537.016103
619.206216,-8586.388927,-5033.400406,-84883.381178
619.208796,5329.482782,3404.947333,-74004.825107
619.211376,-16580.613101,-8882.471304,-77988.521696
619.213956,-9178.553681,-148.041188,-75537.016103
619.216536,296.082377,3404.947333,-74464.482406
619.219116,-2220.617826,-1036.288319,-79061.055394
619.221695,-2516.700203,10510.924376,-70327.566716
619.224275,1036.288319,1628.453072,-76303.111601
619.226855,-6661.853478,1924.535449,-76915.987999
619.229435,-3404.947333,1628.453072,-75383.797003
619.232015,-5329.482782,592.164754,-74924.139704
619.234595,-10214.842000,-4737.318029,-75537.016103
619.237175,1924.535449,-1036.288319,-74004.825107
619.239755,-7994.224174,-1480.411884,-76149.892501
619.242335,-11991.336260,592.164754,-74158.044206
619.244915,7698.141797,5921.647536,-74924.139704
619.247494,-12287.418637,0.000000,-81206.122788
619.250074,5477.523971,3701.029710,-76915.987999
619.252654,-13027.624579,-296.082377,-75996.673402
619.255234,8734.430116,-10955.047942,-79827.150892
619.257814,-25018.960840,-148.041188,-75537.016103
619.260398,23538.548956,9178.553681,-74311.263306
619.262981,-21762.054695,-11695.253884,-80593.246390
619.265565,-10807.006753,10066.800811,-76762.768900
619.268148,33309.267390,26499.372724,-74158.044206
619.270732,-40119.162056,-10362.883188,-87947.763170
619.273315,16728.654289,13915.871710,-72166.195912
619.275899,4589.276840,5625.565159,-73851.606007
619.278483,-15840.407159,-3552.988522,-79673.931792
619.281066,21317.931130,18801.230927,-72932.291410
619.283650,-7846.182985,592.164754,-82891.532884
619.286233,-1924.535449,8882.471304,-78141.740796
619.288817,3256.906145,5181.441594,-71706.538613
619.291400,-7550.100608,592.164754,-78754.617194
619.293984,7698.141797,10214.842000,-76915.987999
619.296568,-2664.741391,1480.411884,-74770.920605
619.299151,-4885.359217,2812.782580,-75690.235202
619.301735,1480.411884,10362.883188,-73085.510509
619.304318,4737.318029,4293.194464,-76456.330700
619.306902,-3256.906145,6513.812290,-76915.987999
619.309485,9474.636058,11103.089130,-74617.701505
619.312069,-7994.224174,3997.112087,-78294.959896
619.314652,1776.494261,4737.318029,-77528.864398
619.317236,9326.594869,11399.171507,-73851.606007
619.319820,-9178.553681,-1776.494261,-78141.740796
619.322403,12287.418637,8734.430116,-71706.538613
619.324987,-8290.306550,11103.089130,-72779.072310
619.327570,-2368.659014,3701.029710,-74464.482406
619.330154,-1184.329507,10658.965565,-71706.538613
619.332737,16136.489536,1924.535449,-78448.178995
619.335321,-22354.219448,-6069.688724,-83351.190182
619.337905,296.082377,18505.148550,-67876.061123
619.340488,4293.194464,-7550.100608,-76456.330700
619.343072,-37306.379477,-5033.400406,-70940.443115
619.345655,29904.320057,17320.819043,-58836.134246
619.348239,-27239.578666,-15988.448347,-79827.150892
619.350822,592.164754,7402.059420,-75996.673402
619.353406,5921.647536,13915.871710,-68948.594820
619.355990,-23686.590144,-8734.430116,-79214.274493
619.358573,13767.830521,13619.789333,-64964.898230
619.361157,-2812.782580,3108.864956,-71553.319513
619.363743,-11103.089130,1184.329507,-77069.207099
619.366329,-1332.370696,4441.235652,-70021.128517
619.368915,-4441.235652,-2220.617826,-74924.139704
619.371501,-3404.947333,2664.741391,-80593.246390
619.374087,-4441.235652,10510.924376,-75077.358804
619.376673,1332.370696,-3256.906145,-76149.892501
619.379259,-5329.482782,6365.771101,-72012.976812
619.381845,-3997.112087,1628.453072,-75230.577904
619.384431,-10955.047942,-592.164754,-72779.072310
619.387017,-3404.947333,-4293.194464,-75996.673402
619.389603,740.205942,1480.411884,-73851.606007
619.392189,-4885.359217,1628.453072,-75077.358804
619.394775,-15988.448347,-2664.741391,-76303.111601
619.397361,2812.782580,6513.812290,-74617.701505
619.399947,-8882.471304,1480.411884,-74770.920605
619.402533,3552.988522,11695.253884,-70940.443115
619.405119,-14804.118840,-7846.182985,-76149.892501
619.407705,5625.565159,13619.789333,-65730.993728
619.410291,-8142.265362,-15100.201217,-78754.617194
619.412877,-15544.324782,12731.542202,-67569.622924
619.415463,38342.667796,19245.354492,-77069.207099
619.418049,-29016.072926,0.000000,-85036.600278
619.420635,17172.777854,34345.555709,-65118.117330
619.423221,-10214.842000,0.000000,-66190.651027
619.425807,-13027.624579,7402.059420,-66650.308326
619.428393,22650.301825,13027.624579,-69255.033019
619.430979,-18357.107362,1184.329507,-72472.634111
619.433565,3256.906145,16136.489536,-73238.729609
619.436151,6809.894666,17320.819043,-65424.555529
619.438737,-9474.636058,-148.041188,-79214.274493
619.441323,7994.224174,9474.636058,-75996.673402
619.443909,444.123565,5773.606348,-76303.111601
619.446495,-5033.400406,6661.853478,-77222.426198
619.449081,-4145.153275,12139.377449,-71400.100414
619.451667,740.205942,-1480.411884,-75077.358804
619.454253,2220.617826,7402.059420,-70787.224015
619.456839,13175.665768,7698.141797,-74770.920605
619.459425,-8290.306550,6957.935855,-77528.864398
619.462011,5477.523971,8142.265362,-76456.330700
619.464597,-2664.741391,5033.400406,-75230.577904
619.467184,10807.006753,11547.212695,-74464.482406
619.469772,-5773.606348,6365.771101,-74617.701505
619.472360,6365.771101,4885.359217,-72932.291410
619.474948,-14063.912898,6957.935855,-75843.454302
619.477536,8142.265362,9326.594869,-69255.033019
619.480124,-14804.118840,3108.864956,-73545.167808
619.482712,29904.320057,11547.212695,-72166.195912
619.485300,-21762.054695,-2072.576638,-80593.246390
619.487888,3552.988522,17764.942608,-70327.566716
619.490477,-2664.741391,-10214.842000,-79214.274493
619.493065,-36418.132346,-2368.659014,-69867.909418
619.495653,23834.631332,17024.736666,-60674.763442
619.498241,-29608.237680,-15100.201217,-78448.178995
619.500829,-888.247130,12139.377449,-71706.538613
619.503417,8586.388927,9918.759623,-72012.976812
619.506005,-27831.743419,-4293.194464,-78448.178995
619.508593,-2960.823768,2664.741391,-76762.768900
619.511181,7698.141797,3108.864956,-72166.195912
619.513769,-16432.571912,-1036.288319,-76762.768900
619.516357,-2664.741391,5181.441594,-72166.195912
619.518945,-7254.018232,-3849.070898,-75077.358804
619.521533,-2516.700203,2960.823768,-77835.302597
619.524121,888.247130,10214.842000,-70634.004916
619.526709,2664.741391,-592.164754,-76762.768900
619.529297,-8586.388927,2960.823768,-75077.358804
619.531885,-1036.288319,4441.235652,-72472.634111
619.534473,-16136.489536,-4145.153275,-74004.825107
619.537061,2368.659014,-296.082377,-74158.044206
619.539649,1924.535449,2664.741391,-75230.577904
619.542237,-14211.954086,-1480.411884,-75843.454302
619.544825,-1776.494261,10510.924376,-70327.566716
619.547413,-6661.853478,0.000000,-76303.111601
619.550001,3849.070898,2960.823768,-75690.235202
619.552589,-9622.677246,4885.359217,-74464.482406
619.555177,7550.100608,-2220.617826,-77375.645298
619.557765,-33605.349767,-7254.018232,-79214.274493
619.560353,29016.072926,17468.860231,-66650.308326
619.562941,-8882.471304,-12139.377449,-83504.409282
619.565529,148.041188,20133.601622,-71859.757712
619.568117,27979.784608,20873.807564,-75537.016103
619.570706,-38342.667796,-10807.006753,-92544.336158
619.573295,26795.455100,11991.336260,-77069.207099
619.575884,15100.201217,13471.748144,-66497.089226
619.578473,-21169.889941,-4885.359217,-79214.274493
619.581062,20873.807564,20429.683999,-73545.167808
619.583651,11547.212695,20281.642811,-64964.898230
619.586240,-8142.265362,2220.617826,-75077.358804
619.588829,14211.954086,7994.224174,-73698.386908
619.591418,-444.123565,6513.812290,-73698.386908
619.594007,-2960.823768,8142.265362,-74311.263306
619.596596,1184.329507,9622.677246,-71859.757712
619.599184,1036.288319,-2220.617826,-77835.302597
619.601773,6661.853478,6957.935855,-74617.701505
619.604362,4441.235652,5181.441594,-77835.302597
619.606951,-8586.388927,7994.224174,-76303.111601
619.609540,4589.276840,9178.553681,-74464.482406
619.612129,2368.659014,8142.265362,-75383.797003
619.614718,5625.565159,13915.871710,-74770.920605
619.617307,7105.977043,10214.842000,-69561.471218
619.619896,-740.205942,8586.388927,-75690.235202
619.622485,-4145.153275,-3849.070898,-79673.931792
619.625074,3552.988522,12435.459826,-71706.538613
619.627663,-6069.688724,-6809.894666,-84117.285680
619.630251,6513.812290,22502.260637,-71859.757712
619.632840,10362.883188,-296.082377,-83044.751983
619.635429,-38638.750172,-5921.647536,-74617.701505
619.638018,31236.690752,11399.171507,-68795.375720
619.640607,-30496.484810,-31828.855506,-87794.544071
619.643196,-296.082377,296.082377,-79673.931792
619.645785,14359.995275,-1924.535449,-79214.274493
619.648374,-26055.249158,-7105.977043,-82278.656485
619.650963,13471.748144,12879.583391,-75843.454302
619.653552,10510.924376,6217.729913,-71859.757712
619.656141,-16580.613101,-11843.295072,-84423.723880
619.658730,15396.283594,6365.771101,-73238.729609
619.661318,-14952.160028,-5921.647536,-76303.111601
619.663907,-8586.388927,-1628.453072,-74770.920605
619.666496,-888.247130,3108.864956,-71246.881314
619.669085,2664.741391,-1628.453072,-76915.987999
619.671674,-4589.276840,5033.400406,-75383.797003
619.674263,1036.288319,3997.112087,-75843.454302
619.676852,-18061.024985,-444.123565,-76762.768900
619.679442,1036.288319,-1184.329507,-74158.044206
619.682031,-8438.347739,-4145.153275,-75077.358804
619.684620,2516.700203,-148.041188,-74617.701505
619.687209,-10362.883188,-3997.112087,-75537.016103
619.689798,-4885.359217,6957.935855,-72166.195912
619.692387,-9178.553681,2516.700203,-73391.948708
619.694977,9326.594869,5921.647536,-72779.072310
619.697566,-15248.242405,-1924.535449,-79214.274493
619.700155,14508.036463,3404.947333,-77069.207099
619.702744,-39230.914926,-10362.883188,-83197.971083
619.705333,27091.537477,17468.860231,-65884.212828
619.707922,4145.153275,-9178.553681,-79673.931792
619.710512,-5921.647536,14063.912898,-73698.386908
619.713101,32272.979071,24870.919651,-73851.606007
619.715690,-34345.555709,-11843.295072,-89939.611465
619.718279,16136.489536,11251.130318,-79061.055394
619.720868,8142.265362,14508.036463,-66037.431928
619.723457,-19689.478057,-3701.029710,-77222.426198
619.726047,15692.365970,17024.736666,-75843.454302
619.728636,1628.453072,7994.224174,-75383.797003
619.731225,-12287.418637,7550.100608,-75383.797003
619.733814,6661.853478,11399.171507,-69561.471218
619.736403,-4441.235652,3256.906145,-73238.729609
619.738992,-2220.617826,5181.441594,-78754.617194
619.741582,-2516.700203,10214.842000,-71859.757712
619.744171,296.082377,-1924.535449,-80133.589091
619.746760,8438.347739,8882.471304,-74158.044206
619.749349,3552.988522,4737.318029,-77835.302597
619.751938,-5181.441594,8142.265362,-76149.892501
619.754527,1480.411884,8734.430116,-74770.920605
619.757116,6513.812290,15544.324782,-74158.044206
619.759706,-1628.453072,3849.070898,-77988.521696
619.762295,5033.400406,11251.130318,-71246.881314
619.764884,-5181.441594,5477.523971,-75383.797003
619.767473,2516.700203,2812.782580,-72319.415011
619.770062,-9030.512492,6217.729913,-73698.386908
619.772651,16432.571912,7254.018232,-75996.673402
619.775241,-14656.077652,9030.512492,-73085.510509
619.777830,22058.137072,19689.478057,-69101.813920
619.780418,-27979.784608,-15692.365970,-84423.723880
619.783007,-19689.478057,9030.512492,-72319.415011
619.785596,18357.107362,444.123565,-70940.443115
619.788185,-33901.432144,-11103.089130,-75383.797003
619.790774,14656.077652,17024.736666,-66650.308326
619.793363,10955.047942,14656.077652,-70327.566716
619.795952,-25759.166782,-6661.853478,-79214.274493
619.798541,9918.759623,15396.283594,-64352.021832
619.801129,-2812.782580,-2368.659014,-70940.443115
619.803718,-6957.935855,740.205942,-77835.302597
619.806307,-1036.288319,2960.823768,-74311.263306
619.808896,-15544.324782,-2664.741391,-78754.617194
619.811485,0.000000,7105.977043,-76609.549800
619.814074,-1628.453072,0.000000,-76609.549800
619.816663,-3108.864956,740.205942,-77835.302597
619.819252,-7402.059420,7550.100608,-73698.386908
619.821840,-12879.583391,-3552.988522,-76609.549800
619.824429,-1036.288319,5773.606348,-71553.319513
619.827018,1184.329507,296.082377,-74158.044206
619.829607,-18505.148550,-7994.224174,-76609.549800
619.832196,4737.318029,7994.224174,-71246.881314
619.834785,-12139.377449,2960.823768,-72625.853210
619.837374,-592.164754,5033.400406,-74617.701505
619.839963,-8734.430116,2368.659014,-76609.549800
619.842551,10214.842000,296.082377,-76609.549800
619.845140,-34197.514520,-7550.100608,-81052.903688
619.847729,28571.949361,17616.901420,-66343.870127
619.850318,-8438.347739,-11991.336260,-82278.656485
619.852907,888.247130,18801.230927,-71706.538613
619.855496,28423.908173,22650.301825,-73698.386908
619.858085,-35085.761651,-9474.636058,-91165.364262
619.860674,3997.112087,10066.800811,-71859.757712
619.863262,13767.830521,12139.377449,-66956.746525
619.865851,-23242.466579,-3849.070898,-78294.959896
619.868440,21021.848753,14952.160028,-76609.549800
619.871029,1184.329507,6513.812290,-77375.645298
619.873618,-8142.265362,6661.853478,-78141.740796
619.876207,7698.141797,14211.954086,-66497.089226
619.878796,-2812.782580,-3701.029710,-75537.016103
619.881384,-1924.535449,7402.059420,-77375.645298
619.883973,-1036.288319,6069.688724,-73851.606007
619.886562,-1924.535449,-2072.576638,-77528.864398
619.889151,5329.482782,7698.141797,-75537.016103
619.891739,1184.329507,3404.947333,-81359.341888
619.894328,-2072.576638,11103.089130,-73851.606007
619.896917,11251.130318,12287.418637,-73391.948708
619.899505,-5625.565159,9918.759623,-76609.549800
619.902094,8290.306550,6365.771101,-75690.235202
619.904683,5181.441594,15544.324782,-72166.195912
619.907272,-10658.965565,-6069.688724,-81665.780087
619.909860,8882.471304,10658.965565,-72012.976812
619.912449,-6513.812290,-7254.018232,-81206.122788
619.915038,9326.594869,20281.642811,-72166.195912
619.917627,7254.018232,-3256.906145,-83351.190182
619.920215,-29016.072926,4441.235652,-72166.195912
619.922804,25611.125593,7698.141797,-71553.319513
619.925393,-45152.562462,-27091.537477,-82891.532884
619.927981,14063.912898,2072.576638,-72166.195912
619.930570,17024.736666,8438.347739,-72779.072310
619.933159,-24426.796086,296.082377,-77069.207099
619.935748,4885.359217,13471.748144,-79367.493593
619.938336,4885.359217,296.082377,-76456.330700
619.940925,-22502.260637,-12583.501014,-84270.504780
619.943514,11547.212695,5921.647536,-72166.195912
619.946103,-15396.283594,-3552.988522,-75230.577904
619.948691,-2220.617826,4885.359217,-76149.892501
619.951280,-2812.782580,3997.112087,-73391.948708
619.953869,-2368.659014,-1924.535449,-73391.948708
619.956458,-2368.659014,9326.594869,-68488.937521
619.959046,-3108.864956,-3701.029710,-78294.959896
619.961635,-4737.318029,2516.700203,-79520.712692
619.964224,5181.441594,5921.647536,-66956.746525
619.966812,-13323.706956,-2368.659014,-71553.319513
619.969401,-9030.512492,-7254.018232,-77682.083497
619.971990,2812.782580,5477.523971,-74311.263306
619.974579,-11399.171507,1332.370696,-76762.768900
619.977167,5181.441594,5625.565159,-71706.538613
619.979756,-14063.912898,-1480.411884,-76762.768900
619.982345,12879.583391,740.205942,-79980.369991
619.984933,-30644.525999,-9622.677246,-81359.341888
619.987522,22206.178260,19541.436869,-65424.555529
619.990110,1924.535449,-10658.965565,-80286.808190
619.992699,-6217.729913,13471.748144,-72166.195912
619.995288,32865.143825,22798.343014,-75077.358804
619.997876,-22798.343014,2368.659014,-73545.167808
620.000465,-296.082377,10807.006753,-70327.566716
620.003053,21021.848753,12583.501014,-73391.948708
620.005642,-14063.912898,-296.082377,-69408.252119
620.008230,-1924.535449,13619.789333,-70174.347617
620.010819,13915.871710,19985.560434,-68948.594820
620.013408,-3256.906145,3256.906145,-78294.959896
620.015996,3256.906145,8438.347739,-75843.454302
620.018585,4293.194464,-888.247130,-74158.044206
620.021173,-7105.977043,5033.400406,-74617.701505
620.023762,148.041188,11547.212695,-72319.415011
620.026350,6365.771101,-1776.494261,-78907.836294
620.028939,3701.029710,4293.194464,-76303.111601
620.031527,6217.729913,8142.265362,-74770.920605
620.034116,-5329.482782,8290.306550,-73851.606007
620.036705,7550.100608,10510.924376,-79367.493593
620.039293,6365.771101,7402.059420,-73545.167808
620.041882,4885.359217,8142.265362,-73851.606007
620.044470,-11251.130318,3256.906145,-74617.701505
620.047059,10066.800811,10066.800811,-72012.976812
620.049647,-9622.677246,-4145.153275,-80133.589091
620.052236,24278.754898,16728.654289,-71706.538613
620.054825,-13471.748144,-7105.977043,-82585.094684
620.057413,-11547.212695,14359.995275,-71400.100414
620.060002,14952.160028,1924.535449,-74311.263306
620.062590,-47669.262665,-13027.624579,-71553.319513
620.065179,22206.178260,11991.336260,-59755.448844
620.067767,-13619.789333,-14063.912898,-77988.521696
620.070356,-10066.800811,2812.782580,-81972.218286
620.072944,18061.024985,18357.107362,-71553.319513
620.075533,-13619.789333,-9030.512492,-77988.521696
620.078122,-14656.077652,-4589.276840,-80440.027290
620.080710,7550.100608,2812.782580,-71400.100414
620.083299,-15692.365970,-4145.153275,-76303.111601
620.085887,-6661.853478,9178.553681,-75690.235202
620.088475,-3849.070898,740.205942,-76149.892501
620.091062,-6661.853478,4441.235652,-77988.521696
620.093650,-8882.471304,3997.112087,-74004.825107
620.096237,-6365.771101,1776.494261,-74004.825107
620.098824,-1924.535449,3701.029710,-74158.044206
620.101412,-296.082377,-5033.400406,-78601.398095
620.103999,-13915.871710,-3108.864956,-75077.358804
620.106587,-5773.606348,-8882.471304,-75843.454302
620.109174,-7994.224174,1480.411884,-77528.864398
620.111761,-3552.988522,-1332.370696,-80593.246390
620.114349,1628.453072,9622.677246,-71246.881314
620.116936,-17468.860231,-7846.182985,-75690.235202
620.119524,13027.624579,17172.777854,-65730.993728
620.122111,-13027.624579,-15396.283594,-80133.589091
620.124698,-9918.759623,15100.201217,-67109.965625
620.127286,31236.690752,8882.471304,-77835.302597
620.129873,-30940.608376,-296.082377,-80899.684589
620.132461,32865.143825,34789.679274,-66037.431928
620.135048,-15988.448347,888.247130,-71553.319513
620.137635,-2220.617826,9474.636058,-70174.347617
620.140223,17172.777854,14508.036463,-68182.499322
620.142810,-14211.954086,444.123565,-69561.471218
620.145398,-4441.235652,10214.842000,-73545.167808
620.147985,13323.706956,20725.766376,-68335.718422
620.150572,-2072.576638,5477.523971,-78141.740796
620.153160,1628.453072,7254.018232,-77528.864398
620.155747,4293.194464,4145.153275,-70021.128517
620.158335,-5329.482782,888.247130,-74158.044206
620.160922,-4145.153275,10807.006753,-73545.167808
620.163509,5921.647536,1480.411884,-79061.055394
620.166097,148.041188,1776.494261,-81359.341888
620.168684,5477.523971,11103.089130,-77528.864398
620.171272,-592.164754,15100.201217,-74617.701505
620.173859,-8142.265362,3256.906145,-78141.740796
620.176446,6809.894666,6217.729913,-73391.948708
620.179034,3552.988522,9474.636058,-72625.853210
620.181621,-7105.977043,2812.782580,-73698.386908
620.184209,-3849.070898,10510.924376,-76762.768900
620.186796,8438.347739,1628.453072,-80593.246390
620.189383,-16284.530724,17172.777854,-69867.909418
620.191970,28423.908173,12879.583391,-71246.881314
620.194557,-44412.356520,-19393.395680,-83964.066581
620.197143,11399.171507,15100.201217,-75383.797003
620.199730,6217.729913,-21465.972318,-86415.572174
620.202316,-33753.390955,-11251.130318,-76609.549800
620.204903,19541.436869,13767.830521,-67876.061123
620.207489,-21614.013506,-2368.659014,-79520.712692
620.210076,-296.082377,14063.912898,-80593.246390
620.212663,13767.830521,13027.624579,-66343.870127
620.215249,-20873.807564,-13471.748144,-81512.560987
620.217836,-592.164754,-3404.947333,-77988.521696
620.220422,-296.082377,6661.853478,-70021.128517
620.223009,-10510.924376,-4293.194464,-80440.027290
620.225596,-2220.617826,10807.006753,-69561.471218
620.228182,-4885.359217,-2516.700203,-72166.195912
620.230769,-13027.624579,1924.535449,-76609.549800
620.233355,3256.906145,2072.576638,-76149.892501
620.235942,-7105.977043,-5477.523971,-77222.426198
620.238528,-2072.576638,-3108.864956,-71246.881314
620.241115,-6513.812290,-10066.800811,-73851.606007
620.243702,-5625.565159,148.041188,-75996.673402
620.246288,-3701.029710,3701.029710,-75843.454302
620.248875,-740.205942,10807.006753,-70940.443115
620.251461,-22798.343014,-8438.347739,-77682.083497
620.254048,12435.459826,17764.942608,-64505.240932
620.256634,-11695.253884,-15544.324782,-80746.465489
620.259221,-12879.583391,15100.201217,-67263.184724
620.261808,32865.143825,10658.965565,-77375.645298
620.264394,-36122.049970,-1776.494261,-83964.066581
620.266981,30496.484810,35529.885216,-66650.308326
620.269567,-12879.583391,6365.771101,-68642.156621
620.272154,-10214.842000,7254.018232,-70787.224015
620.274740,19985.560434,17172.777854,-66956.746525
620.277327,-23094.425390,-7105.977043,-81359.341888
620.279914,12287.418637,7698.141797,-72166.195912
620.282500,14063.912898,20281.642811,-66956.746525
620.285087,-888.247130,4737.318029,-80286.808190
620.287673,1628.453072,6809.894666,-77528.864398
620.290260,2960.823768,6957.935855,-68029.280222
620.292846,-5477.523971,888.247130,-74617.701505
620.295432,-4737.318029,9770.718434,-74004.825107
620.298018,9178.553681,740.205942,-78754.617194
620.300604,2812.782580,4737.318029,-79367.493593
620.303189,11991.336260,12731.542202,-77375.645298
620.305775,-11991.336260,13915.871710,-73698.386908
620.308361,-148.041188,4737.318029,-75077.358804
620.310946,7550.100608,5181.441594,-76456.330700
620.313532,-4885.359217,3404.947333,-76303.111601
620.316118,8438.347739,11547.212695,-69714.690318
620.318704,-10066.800811,740.205942,-78141.740796
620.321289,18209.066173,13915.871710,-77069.207099
620.323875,-11843.295072,-5477.523971,-83351.190182
620.326461,-12435.459826,14804.118840,-69561.471218
620.329046,15248.242405,-148.041188,-74004.825107
620.331632,-47225.139100,-13175.665768,-71859.757712
620.334218,18949.272115,8290.306550,-62206.954438
620.336803,-15988.448347,-14211.954086,-75843.454302
620.339389,-7550.100608,3701.029710,-76149.892501
620.341975,8438.347739,21614.013506,-68642.156621
620.344561,-26351.331535,148.041188,-77682.083497
620.347146,4589.276840,12287.418637,-67722.842023
620.349732,1924.535449,-3256.906145,-70787.224015
620.352318,-13323.706956,-6661.853478,-77222.426198
620.354903,-7550.100608,9622.677246,-76609.549800
620.357489,-2960.823768,4145.153275,-75230.577904
620.360075,-7550.100608,-1776.494261,-75996.673402
620.362660,-5033.400406,11991.336260,-67416.403824
620.365246,-6809.894666,-1776.494261,-75996.673402
620.367832,-7550.100608,592.164754,-76456.330700
620.370418,148.041188,-5033.400406,-75996.673402
620.373003,-14359.995275,-10658.965565,-76456.330700
620.375589,2812.782580,3701.029710,-72319.415011
620.378175,-7402.059420,4293.194464,-74158.044206
620.380760,2072.576638,3108.864956,-78448.178995
620.383346,-15396.283594,148.041188,-76609.549800
620.385932,12435.459826,12287.418637,-67109.965625
620.388518,-24278.754898,-15100.201217,-81206.122788
620.391103,4737.318029,21021.848753,-64045.583633
620.393689,19837.519246,5033.400406,-78754.617194
620.396275,-25907.207970,-2072.576638,-81972.218286
620.398830,39675.038491,35825.967593,-66497.089226
620.401386,-23390.507767,1332.370696,-76609.549800
620.403942,3108.864956,10066.800811,-73545.167808
620.406497,11251.130318,11251.130318,-70634.004916
620.409053,-17912.983796,-7402.059420,-81512.560987
620.411609,11103.089130,7105.977043,-77988.521696
620.414164,1480.411884,4885.359217,-76149.892501
620.416720,-2220.617826,7994.224174,-76456.330700
620.419276,5773.606348,11103.089130,-73698.386908
620.421831,5625.565159,10214.842000,-71859.757712
620.424387,-4737.318029,-592.164754,-79214.274493
620.426943,-8290.306550,8882.471304,-75996.673402
620.429498,12583.501014,7254.018232,-74158.044206
620.432054,3256.906145,10510.924376,-73698.386908
620.434610,8290.306550,17468.860231,-75996.673402
620.437165,-8142.265362,9474.636058,-75843.454302
620.439721,-1036.288319,-1036.288319,-79673.931792
620.442277,13027.624579,13027.624579,-74464.482406
620.444832,-3552.988522,-5181.441594,-80286.808190
620.447388,-4885.359217,14063.912898,-73851.606007
620.449944,5773.606348,1036.288319,-80133.589091
620.452499,-6661.853478,17468.860231,-73545.167808
620.455055,21317.931130,4145.153275,-77682.083497
620.457611,-37750.503042,-17616.901420,-83504.409282
620.460166,-12139.377449,8882.471304,-75077.358804
620.462722,11695.253884,-9770.718434,-77835.302597
620.465278,-32865.143825,-11547.212695,-74158.044206
620.467833,10955.047942,9326.594869,-70021.128517
620.470389,-5033.400406,3997.112087,-73085.510509
620.472945,-11399.171507,10807.006753,-80440.027290
620.475500,8882.471304,3552.988522,-75537.016103
620.478056,-21614.013506,-15692.365970,-83504.409282
620.480612,7254.018232,-2516.700203,-75843.454302
620.483167,-5921.647536,3552.988522,-71093.662214
620.485723,-8290.306550,-1332.370696,-81052.903688
620.488279,-592.164754,9770.718434,-70634.004916
620.490834,-7698.141797,-7105.977043,-70940.443115
620.493390,-13175.665768,-3997.112087,-82125.437386
620.495946,-1776.494261,2516.700203,-77222.426198
620.498501,-9770.718434,-5773.606348,-75996.673402
620.501061,-3701.029710,-7105.977043,-73391.948708
620.503621,-3552.988522,592.164754,-74311.263306
620.506181,-6809.894666,4145.153275,-74924.139704
620.508742,740.205942,8142.265362,-75383.797003
620.511302,-16432.571912,-2812.782580,-79214.274493
620.513862,10955.047942,-148.041188,-76303.111601
620.516422,-32124.937883,-12731.542202,-81512.560987
620.518982,28127.825796,22946.384202,-66343.870127
620.521543,1036.288319,-7254.018232,-80746.465489
620.524103,-8734.430116,14656.077652,-84270.504780
620.526663,35974.008781,33457.308578,-67109.965625
620.529223,-18209.066173,3404.947333,-72319.415011
620.531783,-2220.617826,10510.924376,-70327.566716
620.534343,13915.871710,12139.377449,-70787.224015
620.536904,-15248.242405,-7105.977043,-82431.875585
620.539464,8882.471304,6661.853478,-79367.493593
620.542024,740.205942,5625.565159,-74004.825107
620.544584,-2664.741391,9918.759623,-75077.358804
620.547144,9918.759623,14804.118840,-70021.128517
620.549705,2072.576638,-2368.659014,-77069.207099
620.552265,-7550.100608,2516.700203,-76915.987999
620.554825,0.000000,11399.171507,-71093.662214
620.557385,1628.453072,-1332.370696,-78141.740796
620.559945,11547.212695,9918.759623,-75996.673402
620.562505,7105.977043,16432.571912,-74617.701505
620.565066,-12879.583391,8882.471304,-72625.853210
620.567626,6661.853478,6365.771101,-74770.920605
620.570186,2664.741391,5477.523971,-74924.139704
620.572746,12435.459826,2516.700203,-75230.577904
620.575306,-7846.182985,10510.924376,-73698.386908
620.577866,6809.894666,7698.141797,-75383.797003
620.580427,-15840.407159,14063.912898,-70480.785816
620.582987,26647.413912,10955.047942,-71246.881314
620.585547,-35825.967593,-15840.407159,-82738.313784
620.588107,444.123565,13027.624579,-74158.044206
620.590667,5181.441594,-13915.871710,-81512.560987
620.593228,-30644.525999,-11399.171507,-77988.521696
620.595788,8438.347739,11991.336260,-67722.842023
620.598348,9474.636058,12139.377449,-67416.403824
620.600908,-19689.478057,6957.935855,-79980.369991
620.603472,10955.047942,9622.677246,-71553.319513
620.606036,-19541.436869,-10510.924376,-78907.836294
620.608600,-3256.906145,-8734.430116,-79214.274493
620.611164,2812.782580,16728.654289,-63279.488135
620.613728,-1776.494261,-3552.988522,-79520.712692
620.616292,-5329.482782,5773.606348,-72166.195912
620.618857,-1924.535449,1480.411884,-72779.072310
620.621421,-13767.830521,-1924.535449,-76609.549800
620.623985,-3552.988522,-444.123565,-76762.768900
620.626549,-10955.047942,-11399.171507,-78294.959896
620.629113,-2220.617826,148.041188,-72932.291410
620.631677,-3256.906145,2664.741391,-75537.016103
620.634241,-5329.482782,2664.741391,-75690.235202
620.636805,-7994.224174,5625.565159,-75383.797003
620.639369,-1628.453072,-9770.718434,-74464.482406
620.641933,-14508.036463,2072.576638,-71706.538613
620.644497,22650.301825,-5033.400406,-80899.684589
620.647061,-33457.308578,-3701.029710,-82738.313784
620.649625,34049.473332,31828.855506,-68642.156621
620.652189,148.041188,4145.153275,-74464.482406
620.654753,-8438.347739,11399.171507,-72472.634111
620.657317,13027.624579,9770.718434,-71093.662214
620.659882,-14952.160028,-2072.576638,-77528.864398
620.662446,6513.812290,9326.594869,-75383.797003
620.665010,7698.141797,6217.729913,-71400.100414
620.667574,-10658.965565,2516.700203,-79061.055394
620.670138,7550.100608,15988.448347,-75077.358804
620.672702,-1480.411884,11695.253884,-74770.920605
620.675266,-2220.617826,-1924.535449,-81359.341888
620.677830,-1036.288319,8586.388927,-75230.577904
620.680394,-888.247130,1628.453072,-77682.083497
620.682958,-1480.411884,7698.141797,-72472.634111
620.685496,14952.160028,9326.594869,-72625.853210
620.688034,-1332.370696,12583.501014,-72779.072310
620.690572,592.164754,10362.883188,-75077.358804
620.693111,-2664.741391,6069.688724,-74464.482406
620.695649,5181.441594,10955.047942,-74617.701505
620.698187,13471.748144,6365.771101,-73391.948708
620.700725,-5625.565159,8734.430116,-75537.016103
620.703263,5773.606348,7846.182985,-75230.577904
620.705801,-10955.047942,18061.024985,-66190.651027
620.708340,23686.590144,10066.800811,-70940.443115
620.710878,-31532.773129,-14952.160028,-81512.560987
620.713416,0.000000,11843.295072,-72319.415011
620.715954,2960.823768,-12287.418637,-79061.055394
620.718492,-29608.237680,-10658.965565,-79980.369991
620.721030,13027.624579,8438.347739,-73851.606007
620.723568,-15544.324782,-888.247130,-78448.178995
620.726107,1776.494261,13323.706956,-77069.207099
620.728645,592.164754,4293.194464,-74770.920605
620.731183,-15396.283594,-12139.377449,-78294.959896
620.733721,-9178.553681,-6365.771101,-76149.892501
620.736259,2368.659014,14508.036463,-66343.870127
620.738797,-1628.453072,-1036.288319,-78448.178995
620.741335,-1036.288319,4737.318029,-72319.415011
620.743874,-296.082377,0.000000,-72012.976812
620.746412,-14656.077652,-3997.112087,-75996.673402
620.748950,-5921.647536,-3108.864956,-76456.330700
620.751488,-4589.276840,-13027.624579,-79061.055394
620.754026,-740.205942,-1184.329507,-73851.606007
620.756564,-6513.812290,4293.194464,-70787.224015
620.759102,-7846.182985,4293.194464,-72625.853210
620.761641,-11695.253884,2960.823768,-76303.111601
620.764179,7698.141797,-8586.388927,-78601.398095
620.766717,-32865.143825,-16432.571912,-84117.285680
620.769255,24130.713709,20725.766376,-66037.431928
620.771793,7846.182985,-4441.235652,-79673.931792
620.774331,-15100.201217,11991.336260,-73851.606007
620.776869,36418.132346,24722.878463,-74924.139704
620.779408,-29608.237680,-7402.059420,-88254.201370
620.781946,15248.242405,10066.800811,-78601.398095
620.784484,4885.359217,3849.070898,-75383.797003
620.787030,-14508.036463,-5625.565159,-82125.437386
620.789576,10510.924376,4145.153275,-78601.398095
620.792122,-9622.677246,888.247130,-79520.712692
620.794668,3404.947333,12435.459826,-76609.549800
620.797214,5329.482782,13767.830521,-70787.224015
620.799760,1184.329507,-1184.329507,-77528.864398
620.802306,-9474.636058,3404.947333,-75996.673402
620.804852,9474.636058,11843.295072,-70174.347617
620.807397,3997.112087,-296.082377,-80133.589091
620.809943,13915.871710,12435.459826,-77375.645298
620.812489,1480.411884,7846.182985,-78601.398095
620.815035,-10658.965565,6365.771101,-74617.701505
620.817581,12731.542202,14656.077652,-72012.976812
620.820127,-9178.553681,-7698.141797,-81359.341888
620.822673,10955.047942,6661.853478,-78294.959896
620.825219,-888.247130,-444.123565,-79827.150892
620.827765,3701.029710,15248.242405,-76303.111601
620.830311,0.000000,-5477.523971,-84730.162079
620.832857,-20133.601622,5921.647536,-77069.207099
620.835403,-12139.377449,10362.883188,-74158.044206
620.837949,10955.047942,-8734.430116,-76456.330700
620.840495,-29756.278868,-10066.800811,-75383.797003
620.843041,12287.418637,7550.100608,-72166.195912
620.845587,-5477.523971,740.205942,-74770.920605
620.848133,-6217.729913,8142.265362,-79980.369991
620.850679,2812.782580,5773.606348,-75230.577904
620.853225,-18061.024985,-10510.924376,-81972.218286
620.855771,-2516.700203,-3256.906145,-74770.920605
620.858317,-3849.070898,-148.041188,-73238.729609
620.860862,-5921.647536,-1036.288319,-81052.903688
620.863408,1776.494261,6365.771101,-75843.454302
620.865954,148.041188,-3108.864956,-75230.577904
620.868500,-17468.860231,-3849.070898,-77375.645298
620.871046,-4293.194464,-3404.947333,-75383.797003
620.873592,1332.370696,-5625.565159,-74924.139704
620.876138,-4885.359217,-2072.576638,-76609.549800
620.878684,-6957.935855,592.164754,-75230.577904
620.881230,-4145.153275,9030.512492,-74004.825107
620.883776,-17616.901420,-5773.606348,-77528.864398
620.886322,16432.571912,9918.759623,-69867.909418
620.888875,-23982.672521,-19097.313304,-81972.218286
620.891428,5033.400406,22058.137072,-63892.364533
620.893980,17172.777854,4441.235652,-79827.150892
620.896533,-23538.548956,4441.235652,-80440.027290
620.899086,42339.779882,31976.896694,-70787.224015
620.901639,-22058.137072,1332.370696,-78907.836294
620.904192,2664.741391,5773.606348,-69101.813920
620.906745,16876.695478,15988.448347,-69408.252119
620.909297,-10066.800811,1184.329507,-75383.797003
620.911850,2368.659014,5033.400406,-79520.712692
620.914403,6365.771101,9918.759623,-71859.757712
620.916956,-7550.100608,9474.636058,-75690.235202
620.919509,3849.070898,13471.748144,-71246.881314
620.922062,4145.153275,4737.318029,-67876.061123
620.924614,-5181.441594,1036.288319,-74158.044206
620.927167,5181.441594,12731.542202,-74464.482406
620.929720,4589.276840,3404.947333,-80593.246390
620.932273,-1776.494261,10658.965565,-75383.797003
620.934826,6069.688724,9030.512492,-72779.072310
620.937378,-888.247130,14063.912898,-74311.263306
620.939931,-9178.553681,740.205942,-77375.645298
620.942484,14508.036463,12287.418637,-69101.813920
620.945037,-8882.471304,1184.329507,-76609.549800
620.947590,15248.242405,13915.871710,-72625.853210
620.950143,-17468.860231,-2220.617826,-79827.150892
620.952695,-148.041188,13915.871710,-71553.319513
620.955248,7994.224174,-5477.523971,-78448.178995
620.957801,-38786.791361,-2220.617826,-69101.813920
620.960354,16728.654289,11251.130318,-60981.201641
620.962907,-22946.384202,-12287.418637,-75996.673402
620.965459,-4589.276840,3552.988522,-75077.358804
620.968012,6217.729913,12583.501014,-70480.785816
620.970565,-16580.613101,4145.153275,-73851.606007
620.973118,-6513.812290,6661.853478,-72779.072310
620.975671,2368.659014,-1480.411884,-73238.729609
620.978224,-12583.501014,-8586.388927,-77682.083497
620.980776,-2516.700203,9474.636058,-72319.415011
620.983329,444.123565,6513.812290,-74158.044206
620.985882,-9178.553681,-3552.988522,-80746.465489
620.988435,-5033.400406,6365.771101,-71093.662214
620.990993,-14656.077652,-2812.782580,-71706.538613
620.993551,-3404.947333,-2812.782580,-71400.100414
620.996108,5033.400406,444.123565,-73545.167808
620.998666,-10214.842000,-1776.494261,-77988.521696
621.001224,148.041188,5181.441594,-76915.987999
621.003782,-19097.313304,-1184.329507,-78601.398095
621.006340,6217.729913,-6217.729913,-76456.330700
621.008897,-26943.496289,-12435.459826,-80286.808190
621.011455,21169.889941,21169.889941,-63432.707234
621.014013,5329.482782,-2072.576638,-78448.178995
621.016571,-12139.377449,11843.295072,-74924.139704
621.019129,36418.132346,24722.878463,-76609.549800
621.021687,-22206.178260,-5773.606348,-88100.982270
621.024244,13027.624579,7698.141797,-77222.426198
621.026802,2220.617826,3997.112087,-73698.386908
621.029360,-9918.759623,-7994.224174,-83044.751983
621.031918,11399.171507,6513.812290,-77222.426198
621.034476,-7105.977043,-444.123565,-79980.369991
621.037034,2960.823768,11991.336260,-75230.577904
621.039591,2368.659014,11843.295072,-72472.634111
621.042149,2960.823768,1184.329507,-73851.606007
621.044707,-3701.029710,3849.070898,-76149.892501
621.047265,8438.347739,10362.883188,-73851.606007
621.049823,888.247130,7254.018232,-77835.302597
621.052381,5625.565159,9326.594869,-76609.549800
621.054938,-1924.535449,5181.441594,-79214.274493
621.057496,9178.553681,14211.954086,-74770.920605
621.060054,-8586.388927,2812.782580,-74311.263306
621.062612,7402.059420,8882.471304,-71553.319513
621.065170,-4441.235652,1332.370696,-79214.274493
621.067727,13767.830521,11251.130318,-75996.673402
621.070285,-19541.436869,-3849.070898,-83044.751983
621.072843,6069.688724,18801.230927,-67876.061123
621.075401,17764.942608,3997.112087,-72166.195912
621.077959,-47077.097911,-21614.013506,-78448.178995
621.080517,19245.354492,9178.553681,-64505.240932
621.083074,-9474.636058,-9474.636058,-78448.178995
621.085632,-10362.883188,-2664.741391,-78141.740796
621.088190,7105.977043,17912.983796,-68182.499322
621.090748,-16580.613101,3849.070898,-74311.263306
621.093310,1776.494261,7402.059420,-73851.606007
621.095873,-2072.576638,-1036.288319,-72779.072310
621.098435,-11103.089130,-10807.006753,-79520.712692
621.100997,-2960.823768,8142.265362,-69867.909418
621.103559,-888.247130,6661.853478,-72932.291410
621.106122,-10362.883188,-1036.288319,-77375.645298
621.108684,-7550.100608,3256.906145,-73238.729609
621.111246,-11399.171507,-7698.141797,-76303.111601
621.113809,-5477.523971,-2072.576638,-74770.920605
621.116371,8734.430116,-888.247130,-77069.207099
621.118933,-16728.654289,-2812.782580,-77682.083497
621.121496,-3552.988522,9918.759623,-73238.729609
621.124058,-18357.107362,-3701.029710,-72932.291410
621.126620,1924.535449,10658.965565,-68029.280222
621.129182,9030.512492,-14063.912898,-77528.864398
621.131745,-20429.683999,8586.388927,-70327.566716
621.134307,37010.297100,22206.178260,-74924.139704
621.136869,-31088.649564,888.247130,-83044.751983
621.139432,16580.613101,28275.866984,-68488.937521
621.141994,148.041188,10362.883188,-65271.336430
621.144556,-13619.789333,-740.205942,-74464.482406
621.147119,1184.329507,10510.924376,-72472.634111
621.149681,5181.441594,11251.130318,-64658.460031
621.152243,-7698.141797,6217.729913,-74004.825107
621.154806,12731.542202,14359.995275,-71553.319513
621.157368,-3997.112087,8438.347739,-74770.920605
621.159930,2812.782580,6661.853478,-75383.797003
621.162492,1924.535449,4441.235652,-72779.072310
621.165055,-1924.535449,7254.018232,-76609.549800
621.167617,6069.688724,13471.748144,-75996.673402
621.170179,-1924.535449,4145.153275,-77528.864398
621.172742,-1036.288319,11991.336260,-72166.195912
621.175304,14952.160028,11843.295072,-75230.577904
621.177866,-14804.118840,2368.659014,-75996.673402
621.180429,10955.047942,8142.265362,-71400.100414
621.182991,-6217.729913,6365.771101,-70634.004916
621.185553,11843.295072,8438.347739,-75383.797003
621.188115,-15100.201217,3552.988522,-74617.701505
621.190678,11843.295072,17468.860231,-68335.718422
621.193240,-12435.459826,-13175.665768,-82738.313784
621.195777,-21762.054695,7846.182985,-69255.033019
621.198314,13175.665768,2368.659014,-68335.718422
621.200851,-25315.043216,-8882.471304,-74004.825107
621.203388,6217.729913,8734.430116,-71859.757712
621.205925,-2516.700203,5181.441594,-71400.100414
621.208462,-12287.418637,1776.494261,-80746.465489
621.210999,9326.594869,6661.853478,-73698.386908
621.213536,-15544.324782,-740.205942,-72012.976812
621.216073,-16580.613101,-5625.565159,-78754.617194
621.218610,-7846.182985,10658.965565,-69867.909418
621.221147,-2072.576638,1480.411884,-76915.987999
621.223684,-8290.306550,1332.370696,-75537.016103
621.226221,-4293.194464,1924.535449,-73238.729609
621.228758,-16432.571912,-7698.141797,-77528.864398
621.231295,2664.741391,2220.617826,-72472.634111
621.233832,-2664.741391,-1480.411884,-73545.167808
621.236369,-11103.089130,-3701.029710,-74924.139704
621.238906,-4885.359217,8882.471304,-73851.606007
621.241443,-21021.848753,-6365.771101,-75537.016103
621.243980,3552.988522,13767.830521,-66497.089226
621.246517,4589.276840,-16136.489536,-79520.712692
621.249053,-30940.608376,-6661.853478,-84576.942979
621.251590,-4145.153275,23538.548956,-68488.937521
621.254127,23094.425390,14508.036463,-76762.768900
621.256664,-17172.777854,-8438.347739,-89479.954166
621.259201,18505.148550,6069.688724,-80133.589091
621.261738,444.123565,-2072.576638,-77375.645298
621.264275,-10955.047942,444.123565,-76762.768900
621.266812,13027.624579,11547.212695,-69101.813920
621.269349,-11547.212695,2220.617826,-79367.493593
621.271886,9474.636058,12731.542202,-75537.016103
621.274423,1480.411884,7846.182985,-75843.454302
621.276960,-1332.370696,-740.205942,-80593.246390
621.279497,2960.823768,7254.018232,-77222.426198
621.282034,2812.782580,7698.141797,-73698.386908
621.284571,-3108.864956,5773.606348,-75843.454302
621.287108,3701.029710,8586.388927,-75537.016103
621.289645,4441.235652,6365.771101,-79520.712692
621.292182,4737.318029,17468.860231,-74770.920605
621.294719,0.000000,888.247130,-76915.987999
621.297264,-4145.153275,6217.729913,-77528.864398
621.299810,3256.906145,0.000000,-81359.341888
621.302355,1036.288319,19097.313304,-74311.263306
621.304900,9622.677246,-2072.576638,-82585.094684
621.307446,-32717.102636,-3997.112087,-72166.195912
621.309991,24130.713709,10362.883188,-70480.785816
621.312536,-31680.814318,-27535.661042,-86722.010374
621.315082,2368.659014,-3256.906145,-78907.836294
621.317627,11991.336260,4145.153275,-74311.263306
621.320172,-16876.695478,-3108.864956,-79520.712692
621.322718,-1924.535449,1332.370696,-83197.971083
621.325263,740.205942,2664.741391,-74158.044206
621.327808,-6069.688724,-7105.977043,-80286.808190
621.330354,-3701.029710,3849.070898,-73238.729609
621.332899,-7402.059420,-5477.523971,-76149.892501
621.335444,-9918.759623,-2664.741391,-81052.903688
621.337990,2960.823768,5181.441594,-77528.864398
621.340535,-12583.501014,-3997.112087,-75996.673402
621.343080,-15248.242405,-1480.411884,-74770.920605
621.345626,-1776.494261,-1776.494261,-75996.673402
621.348171,-9770.718434,-444.123565,-74004.825107
621.350716,-5477.523971,-5773.606348,-77835.302597
621.353262,-8734.430116,5773.606348,-73391.948708
621.355807,-14359.995275,-8142.265362,-75383.797003
621.358352,-2812.782580,12139.377449,-67876.061123
621.360898,10955.047942,-14359.995275,-82431.875585
621.363443,-20429.683999,5181.441594,-72625.853210
621.365988,38786.791361,27683.702231,-72472.634111
621.368534,-27239.578666,592.164754,-81665.780087
621.371079,3552.988522,27387.619854,-67109.965625
621.373624,2516.700203,10807.006753,-66037.431928
621.376170,-12139.377449,4737.318029,-69867.909418
621.378715,19245.354492,14508.036463,-71246.881314
621.381260,-3404.947333,5181.441594,-72472.634111
621.383806,-2664.741391,5625.565159,-77528.864398
621.386351,11991.336260,13175.665768,-74617.701505
621.388896,-2368.659014,7402.059420,-75537.016103
621.391442,4885.359217,444.123565,-75843.454302
621.393987,740.205942,9474.636058,-72012.976812
621.396532,3701.029710,5181.441594,-77069.207099
621.399055,-2516.700203,10658.965565,-73238.729609
621.401578,2516.700203,3997.112087,-76915.987999
621.404101,2960.823768,12139.377449,-74311.263306
621.406625,13027.624579,15396.283594,-75843.454302
621.409148,-9622.677246,2812.782580,-76456.330700
621.411672,4589.276840,7846.182985,-73851.606007
621.414195,-2516.700203,148.041188,-77835.302597
621.416719,8290.306550,19985.560434,-72166.195912
621.419242,19097.313304,8438.347739,-75690.235202
621.421766,-39823.079680,-15396.283594,-79214.274493
621.424289,16728.654289,13915.871710,-69867.909418
621.426812,-6069.688724,-27239.578666,-87334.886772
621.429336,-18801.230927,-7846.182985,-81512.560987
621.431859,16432.571912,592.164754,-78448.178995
621.434383,-22798.343014,-6365.771101,-79061.055394
621.436906,5477.523971,4441.235652,-77835.302597
621.439430,-1776.494261,4293.194464,-69714.690318
621.441953,-5329.482782,-3108.864956,-78448.178995
621.444477,592.164754,2368.659014,-74158.044206
621.447000,-15988.448347,-5625.565159,-76149.892501
621.449523,-6661.853478,2072.576638,-76456.330700
621.452047,5329.482782,2072.576638,-73851.606007
621.454570,-14508.036463,-6809.894666,-79980.369991
621.457094,-8586.388927,3997.112087,-74158.044206
621.459617,1924.535449,-1776.494261,-77069.207099
621.462141,-17468.860231,-2664.741391,-75996.673402
621.464664,9770.718434,296.082377,-75383.797003
621.467188,-17320.819043,-740.205942,-75996.673402
621.469711,-444.123565,-8438.347739,-79214.274493
621.472234,-11251.130318,3997.112087,-72779.072310
621.474758,19837.519246,-2516.700203,-83044.751983
621.477281,-27979.784608,-8142.265362,-84270.504780
621.479805,29756.278868,33457.308578,-64045.583633
621.482328,1628.453072,5033.400406,-74617.701505
621.484852,-8438.347739,8438.347739,-74924.139704
621.487375,15692.365970,4589.276840,-80593.246390
621.489898,-1776.494261,-2368.659014,-75843.454302
621.492422,-7550.100608,-3849.070898,-80133.589091
621.494945,12583.501014,15840.407159,-69101.813920
621.497469,-11399.171507,0.000000,-82585.094684
621.500003,2220.617826,10214.842000,-79827.150892
621.502538,1480.411884,7550.100608,-75537.016103
621.505073,2072.576638,-1036.288319,-78141.740796
621.507607,9326.594869,10658.965565,-73851.606007
621.510142,-2960.823768,3404.947333,-81359.341888
621.512676,-3256.906145,9622.677246,-73698.386908
621.515211,4441.235652,8142.265362,-72779.072310
621.517745,9326.594869,12139.377449,-77069.207099
621.520280,-7698.141797,2072.576638,-79673.931792
621.522814,6661.853478,7994.224174,-71553.319513
621.525349,-8142.265362,-5033.400406,-77375.645298
621.527884,21021.848753,12287.418637,-75383.797003
621.530418,-11695.253884,-6809.894666,-86875.229473
621.532953,-4885.359217,17616.901420,-72472.634111
621.535487,3404.947333,-4145.153275,-73698.386908
621.538022,-42931.944636,-6069.688724,-67416.403824
621.540556,16580.613101,10955.047942,-62513.392637
621.543091,-19393.395680,-10214.842000,-79520.712692
621.545626,-7254.018232,6957.935855,-75383.797003
621.548160,8290.306550,13915.871710,-68642.156621
621.550695,-15840.407159,148.041188,-76303.111601
621.553229,11251.130318,8142.265362,-73391.948708
621.555764,4145.153275,740.205942,-73238.729609
621.558298,-12583.501014,-4441.235652,-77835.302597
621.560833,-5181.441594,6217.729913,-75230.577904
621.563368,-5773.606348,3849.070898,-72779.072310
621.565902,-14952.160028,-3701.029710,-75996.673402
621.568437,-888.247130,2812.782580,-73238.729609
621.570971,-10214.842000,-5477.523971,-78294.959896
621.573506,-5625.565159,3256.906145,-74924.139704
621.576040,-4293.194464,-5181.441594,-77375.645298
621.578575,-13175.665768,2960.823768,-75077.358804
621.581110,-10214.842000,-6217.729913,-75690.235202
621.583644,-7105.977043,12435.459826,-68488.937521
621.586179,7846.182985,-12583.501014,-84117.285680
621.588713,-19541.436869,-5625.565159,-80746.465489
621.591248,19837.519246,29904.320057,-67569.622924
621.593782,9622.677246,7105.977043,-75996.673402
621.596317,-9030.512492,4145.153275,-79520.712692
621.598852,13175.665768,5625.565159,-76303.111601
621.601396,-14211.954086,-6809.894666,-77069.207099
621.603940,3552.988522,7550.100608,-71246.881314
621.606484,12139.377449,17024.736666,-63585.926334
621.609029,-7846.182985,1184.329507,-78907.836294
621.611573,8586.388927,15988.448347,-71093.662214
621.614117,-5181.441594,0.000000,-79520.712692
621.616661,1184.329507,3849.070898,-76149.892501
621.619206,1332.370696,8882.471304,-75537.016103
621.621750,-2664.741391,1776.494261,-80593.246390
621.624294,-6513.812290,7698.141797,-75383.797003
621.626839,10510.924376,12731.542202,-72472.634111
621.629383,3849.070898,15544.324782,-75537.016103
621.631927,740.205942,6217.729913,-77069.207099
621.634471,2516.700203,2960.823768,-76609.549800
621.637016,-6069.688724,-2960.823768,-77222.426198
621.639560,21317.931130,15100.201217,-71859.757712
621.642104,-9918.759623,-6809.894666,-85189.819378
621.644648,-12879.583391,13323.706956,-72625.853210
621.647193,11991.336260,444.123565,-74004.825107
621.649737,-51222.251186,-16432.571912,-74004.825107
621.652281,19541.436869,9918.759623,-61134.420740
621.654826,-13027.624579,-7698.141797,-78448.178995
621.657370,-7254.018232,1332.370696,-81818.999186
621.659914,5329.482782,13323.706956,-72166.195912
621.662458,-6513.812290,3997.112087,-69714.690318
621.665003,-9326.594869,-5921.647536,-80899.684589
621.667547,3552.988522,1036.288319,-76456.330700
621.670091,-9918.759623,-8438.347739,-79214.274493
621.672635,-9622.677246,296.082377,-78141.740796
621.675180,-3256.906145,1332.370696,-73698.386908
621.677724,-8586.388927,-5625.565159,-74158.044206
621.680268,-3256.906145,3256.906145,-73238.729609
621.682813,-2368.659014,-592.164754,-76303.111601
621.685357,-18653.189738,-6809.894666,-77375.645298
621.687901,10066.800811,3256.906145,-74158.044206
621.690445,-21465.972318,-3404.947333,-75077.358804
621.692990,13619.789333,6069.688724,-72625.853210
621.695534,592.164754,-12435.459826,-79367.493593
621.698078,-16876.695478,13175.665768,-70021.128517
621.700622,32421.020260,19097.313304,-77222.426198
621.703174,-25611.125593,2368.659014,-81052.903688
621.705726,22798.343014,32865.143825,-65884.212828
621.708278,-4737.318029,9030.512492,-69561.471218
621.710830,-10066.800811,1332.370696,-74004.825107
621.713382,16580.613101,10066.800811,-73545.167808
621.715934,-740.205942,-1924.535449,-79520.712692
621.718486,-1924.535449,10807.006753,-76149.892501
621.721037,5329.482782,12287.418637,-70021.128517
621.723589,-8438.347739,5181.441594,-73851.606007
621.726141,1184.329507,5477.523971,-74004.825107
621.728693,9030.512492,6957.935855,-74158.044206
621.731245,-5773.606348,3404.947333,-79520.712692
621.733797,2812.782580,10510.924376,-76609.549800
621.736349,5773.606348,6217.729913,-79367.493593
621.738901,9178.553681,19245.354492,-74464.482406
621.741452,592.164754,3108.864956,-78907.836294
621.744004,-1184.329507,5625.565159,-74004.825107
621.746556,-4737.318029,-1036.288319,-76609.549800
621.749108,16136.489536,12583.501014,-72012.976812
621.751660,-13027.624579,-6809.894666,-83810.847481
621.754212,1776.494261,19689.478057,-69561.471218
621.756764,2220.617826,-6661.853478,-79827.150892
621.759315,-42043.697506,-7402.059420,-72625.853210
621.761867,21910.095883,9474.636058,-60368.325242
621.764419,-2072.576638,-5181.441594,-77375.645298
621.766971,-14804.118840,-4293.194464,-80746.465489
621.769523,1036.288319,19097.313304,-70480.785816
621.772075,-13915.871710,2812.782580,-74770.920605
621.774627,-4589.276840,8438.347739,-73851.606007
621.777179,-1332.370696,2516.700203,-71706.538613
621.779730,-12879.583391,-3256.906145,-78141.740796
621.782282,-3701.029710,3849.070898,-75996.673402
621.784834,-10955.047942,1480.411884,-73698.386908
621.787386,-6069.688724,-3552.988522,-78294.959896
621.789938,-3849.070898,1776.494261,-74158.044206
621.792490,-7846.182985,-2960.823768,-79061.055394
621.795042,-11399.171507,296.082377,-74311.263306
621.797594,5033.400406,2368.659014,-73698.386908
621.800145,-23982.672521,-6957.935855,-76609.549800
621.802697,15840.407159,10510.924376,-69101.813920
621.805256,-20133.601622,-12139.377449,-78448.178995
621.807814,-2812.782580,17468.860231,-67263.184724
621.810373,23390.507767,11547.212695,-76303.111601
621.812931,-24130.713709,3701.029710,-81512.560987
621.815490,35677.926404,32865.143825,-68948.594820
621.818048,-11991.336260,3404.947333,-76609.549800
621.820607,-6957.935855,1332.370696,-77988.521696
621.823165,12139.377449,3404.947333,-74464.482406
621.825724,-6513.812290,-7105.977043,-83504.409282
621.828282,9030.512492,9326.594869,-78907.836294
621.830841,1924.535449,11843.295072,-71400.100414
621.833399,-7105.977043,2220.617826,-75537.016103
621.835957,2220.617826,6957.935855,-75383.797003
621.838516,5033.400406,6957.935855,-72166.195912
621.841074,-888.247130,5773.606348,-72932.291410
621.843633,8882.471304,10955.047942,-71706.538613
621.846191,6809.894666,6661.853478,-77835.302597
621.848750,5329.482782,17320.819043,-78601.398095
621.851308,2368.659014,3849.070898,-78601.398095
621.853867,-6069.688724,4145.153275,-74617.701505
621.856425,-2368.659014,-2072.576638,-77069.207099
621.858984,12583.501014,14952.160028,-73698.386908
621.861542,-6365.771101,-7105.977043,-87488.105872
621.864101,-16580.613101,13027.624579,-70940.443115
621.866659,24870.919651,9622.677246,-70174.347617
621.869218,-35825.967593,-33309.267390,-89786.392366
621.871776,4589.276840,-5329.482782,-77069.207099
621.874335,3701.029710,-1036.288319,-76456.330700
621.876893,-17764.942608,-6809.894666,-79673.931792
621.879452,5625.565159,13915.871710,-71246.881314
621.882010,-6513.812290,3404.947333,-73085.510509
621.884569,-7994.224174,4145.153275,-76149.892501
621.887103,2812.782580,2072.576638,-73545.167808
621.889638,-11547.212695,-6809.894666,-79673.931792
621.892173,-2812.782580,4885.359217,-77069.207099
621.894708,-5773.606348,-2516.700203,-77988.521696
621.897243,-5329.482782,-2664.741391,-76303.111601
621.899777,0.000000,2368.659014,-73085.510509
621.902312,-10066.800811,-5921.647536,-76609.549800
621.904847,-7402.059420,-2960.823768,-74924.139704
621.907382,1480.411884,-148.041188,-75230.577904
621.909917,-4145.153275,-9474.636058,-74617.701505
621.912452,-7550.100608,4885.359217,-72012.976812
621.914986,18801.230927,-1480.411884,-79673.931792
621.917521,-34937.720462,-7105.977043,-84730.162079
621.920056,36566.173535,32569.061448,-66037.431928
621.922591,1628.453072,2812.782580,-72932.291410
621.925126,-7846.182985,9918.759623,-73545.167808
621.927660,13619.789333,11399.171507,-70634.004916
621.930195,-21614.013506,-7550.100608,-77375.645298
621.932730,9622.677246,11103.089130,-70634.004916
621.935265,21762.054695,20429.683999,-65424.555529
621.937800,-10362.883188,2516.700203,-79214.274493
621.940335,-148.041188,10066.800811,-78601.398095
621.942869,3552.988522,4737.318029,-75077.358804
621.945404,-4441.235652,-592.164754,-77528.864398
621.947939,7105.977043,14656.077652,-73391.948708
621.950474,5181.441594,4441.235652,-76609.549800
621.953009,-5625.565159,12139.377449,-71859.757712
621.955544,19245.354492,17616.901420,-71093.662214
621.958078,-11251.130318,4145.153275,-77222.426198
621.960613,10658.965565,4145.153275,-76762.768900
621.963148,-4737.318029,2960.823768,-74924.139704
621.965683,8438.347739,3404.947333,-76609.549800
621.968218,-7254.018232,-6513.812290,-84270.504780
621.970752,-8586.388927,17172.777854,-70327.566716
621.973287,4293.194464,-5625.565159,-78141.740796
621.975822,-44708.438897,-10510.924376,-70480.785816
621.978357,17468.860231,4885.359217,-63739.145434
621.980892,-16580.613101,-10510.924376,-75077.358804
621.983427,-2664.741391,3849.070898,-75077.358804
621.985961,2960.823768,13471.748144,-69867.909418
621.988506,-7846.182985,-3256.906145,-78448.178995
621.991050,7994.224174,8586.388927,-72472.634111
621.993595,-6365.771101,-592.164754,-69714.690318
621.996140,-6957.935855,-1628.453072,-71553.319513
621.998684,-4441.235652,5329.482782,-71093.662214
622.001229,-10362.883188,-3108.864956,-76609.549800
622.003773,-2664.741391,-3404.947333,-77222.426198
622.006318,-2664.741391,1184.329507,-74464.482406
622.008862,-15248.242405,-4589.276840,-75230.577904
622.011407,-5477.523971,-2220.617826,-73085.510509
622.013952,-6513.812290,-888.247130,-76149.892501
622.016496,-12583.501014,-9178.553681,-78601.398095
622.019041,0.000000,11695.253884,-70327.566716
622.021585,8586.388927,-5625.565159,-79827.150892
622.024130,-26647.413912,-888.247130,-80286.808190
622.026674,41007.409187,31828.855506,-66803.527426
622.029219,-11695.253884,-740.205942,-79367.493593
622.031764,-3108.864956,21762.054695,-68029.280222
622.034308,8290.306550,12287.418637,-65730.993728
622.036853,-20281.642811,-10955.047942,-81512.560987
622.039397,592.164754,5921.647536,-74158.044206
622.041942,17616.901420,19245.354492,-63892.364533
622.044486,-6957.935855,2220.617826,-78448.178995
622.047031,3997.112087,13175.665768,-74158.044206
622.049575,1480.411884,5773.606348,-73698.386908
622.052120,-1628.453072,-1184.329507,-78141.740796
622.054665,3256.906145,15248.242405,-70174.347617
622.057209,3701.029710,5329.482782,-75230.577904
622.059754,444.123565,12287.418637,-71859.757712
622.062298,13471.748144,16284.530724,-73238.729609
622.064843,-9770.718434,3997.112087,-75537.016103
622.067387,11695.253884,5921.647536,-74004.825107
622.069932,-4885.359217,-3108.864956,-81665.780087
622.072477,7698.141797,15396.283594,-74770.920605
622.075021,1480.411884,-2812.782580,-81512.560987
622.077566,-24278.754898,7698.141797,-70787.224015
622.080110,21169.889941,10066.800811,-73085.510509
622.082655,-18801.230927,-26351.331535,-85189.819378
622.085199,-7254.018232,-10955.047942,-78294.959896
622.087744,5773.606348,-888.247130,-75843.454302
622.090297,-17912.983796,-6069.688724,-80286.808190
622.092850,3404.947333,9178.553681,-75690.235202
622.095403,2072.576638,3997.112087,-72779.072310
622.097956,-5773.606348,592.164754,-77528.864398
622.100508,2664.741391,-1332.370696,-76609.549800
622.103061,-12139.377449,-6957.935855,-80440.027290
622.105614,-2368.659014,5477.523971,-77375.645298
622.108167,740.205942,2368.659014,-71553.319513
622.110720,-4737.318029,-8142.265362,-76762.768900
622.113273,-9770.718434,-592.164754,-74004.825107
622.115826,-5921.647536,-9030.512492,-77835.302597
622.118379,-10362.883188,-296.082377,-72932.291410
622.120932,-8142.265362,-7994.224174,-76609.549800
622.123485,7254.018232,11251.130318,-70327.566716
622.126037,-15544.324782,-10955.047942,-80440.027290
622.128590,-2516.700203,22058.137072,-62666.611736
622.131143,21021.848753,7994.224174,-78141.740796
622.133696,-19097.313304,2664.741391,-81972.218286
622.136249,35381.844028,30940.608376,-69714.690318
622.138802,-14359.995275,2072.576638,-78907.836294
622.141355,-14359.995275,-2812.782580,-72932.291410
622.143908,18653.189738,11843.295072,-73851.606007
622.146461,1924.535449,4885.359217,-78294.959896
622.149014,-9326.594869,7402.059420,-79827.150892
622.151566,2516.700203,21465.972318,-66190.651027
622.154119,-6809.894666,4441.235652,-76609.549800
622.156672,-1184.329507,2368.659014,-78448.178995
622.159225,12287.418637,11547.212695,-72779.072310
622.161778,888.247130,4737.318029,-76609.549800
622.164331,7846.182985,12583.501014,-73545.167808
622.166884,10214.842000,14952.160028,-77528.864398
622.169437,-12139.377449,2960.823768,-79827.150892
622.171990,12879.583391,7550.100608,-73545.167808
622.174542,-8438.347739,-3404.947333,-81818.999186
622.177095,16284.530724,11399.171507,-75843.454302
622.179648,-8882.471304,-5329.482782,-83657.628382
622.182201,-17912.983796,13471.748144,-69101.813920
622.184754,14508.036463,2960.823768,-72779.072310
622.187307,-45744.727216,-15840.407159,-75996.673402
622.189860,14063.912898,4885.359217,-66956.746525
622.192419,-13323.706956,-10066.800811,-77222.426198
622.194978,-11251.130318,2368.659014,-75230.577904
622.197538,3404.947333,16136.489536,-68795.375720
622.200097,-5773.606348,-1036.288319,-77222.426198
622.202656,6957.935855,7105.977043,-75996.673402
622.205215,-1036.288319,2664.741391,-67876.061123
622.207774,-10066.800811,-6365.771101,-72625.853210
622.210334,-5033.400406,4293.194464,-79827.150892
622.212893,-3997.112087,5181.441594,-74464.482406
622.215452,-9030.512492,-3404.947333,-75537.016103
622.218011,-7994.224174,3404.947333,-70480.785816
622.220571,-16580.613101,-7846.182985,-76149.892501
622.223130,-5773.606348,2368.659014,-74770.920605
622.225689,-8734.430116,-5329.482782,-74924.139704
622.228248,8586.388927,8586.388927,-72319.415011
622.230808,-21465.972318,-9178.553681,-81972.218286
622.233367,11103.089130,25315.043216,-64198.802732
622.235926,13471.748144,1332.370696,-79980.369991
622.238485,-10955.047942,11251.130318,-74770.920605
622.241044,34937.720462,26499.372724,-73238.729609
622.243604,-5625.565159,10955.047942,-69714.690318
622.246163,-10066.800811,-148.041188,-74770.920605
622.248722,15692.365970,8882.471304,-73238.729609
622.251281,-2516.700203,-4293.194464,-82891.532884
622.253841,-2220.617826,9918.759623,-78907.836294
622.256400,8142.265362,17468.860231,-68948.594820
622.258959,-6513.812290,-4737.318029,-78601.398095
622.261518,1480.411884,4885.359217,-74617.701505
622.264078,15100.201217,10807.006753,-71400.100414
622.266637,-4441.235652,740.205942,-81512.560987
622.269196,12435.459826,9918.759623,-77835.302597
622.271755,3108.864956,14063.912898,-78601.398095
622.274315,-6957.935855,444.123565,-80593.246390
622.276874,9474.636058,4441.235652,-79214.274493
622.279433,-6069.688724,-592.164754,-80133.589091
622.281992,6809.894666,12731.542202,-76303.111601
622.284551,3849.070898,-592.164754,-80593.246390
622.287111,-27239.578666,296.082377,-74004.825107
622.289670,25167.002028,10362.883188,-68182.499322
622.292229,-45448.644839,-28571.949361,-85189.819378
622.294794,9770.718434,1036.288319,-70940.443115
622.297358,-2220.617826,-7402.059420,-76456.330700
622.299922,-17320.819043,-3256.906145,-76762.768900
622.302487,-1776.494261,16432.571912,-71093.662214
622.305051,-3552.988522,3108.864956,-75690.235202
622.307616,-10510.924376,4885.359217,-76915.987999
622.310180,2516.700203,5625.565159,-68795.375720
622.312745,-11399.171507,-1628.453072,-76762.768900
622.315309,-10066.800811,-444.123565,-79214.274493
622.317874,6957.935855,5181.441594,-71859.757712
622.320438,-8586.388927,-2368.659014,-71400.100414
622.323002,-8734.430116,-1628.453072,-71706.538613
622.325567,-4885.359217,-8290.306550,-75996.673402
622.328131,-16284.530724,-2516.700203,-76915.987999
622.330696,-5773.606348,-9622.677246,-77682.083497
622.333260,-3404.947333,13027.624579,-69561.471218
622.335825,12731.542202,-11251.130318,-81665.780087
622.338389,-20281.642811,10066.800811,-72779.072310
622.340954,38786.791361,22946.384202,-75230.577904
622.343518,-23834.631332,740.205942,-80899.684589
622.346082,11843.295072,25907.207970,-68642.156621
622.348647,12139.377449,13323.706956,-71400.100414
622.351211,-18653.189738,-8734.430116,-77682.083497
622.353776,5773.606348,9030.512492,-72012.976812
622.356340,17172.777854,15988.448347,-66650.308326
622.358905,-6217.729913,2960.823768,-79367.493593
622.361469,6365.771101,15692.365970,-70480.785816
622.364034,444.123565,4885.359217,-72472.634111
622.366598,-3849.070898,-1332.370696,-77988.521696
622.369163,740.205942,19393.395680,-71246.881314
622.371727,7846.182985,9326.594869,-75996.673402
622.374291,4145.153275,20577.725188,-73391.948708
622.376856,-1776.494261,7846.182985,-76762.768900
622.379420,-3404.947333,12583.501014,-68488.937521
622.381985,-740.205942,4885.359217,-77835.302597
622.384549,13619.789333,7402.059420,-75690.235202
622.387114,-15100.201217,1776.494261,-74617.701505
622.389678,13767.830521,22354.219448,-63739.145434
622.392243,-16432.571912,-13915.871710,-82125.437386
622.394807,-17764.942608,7105.977043,-72472.634111
622.397377,18505.148550,-2516.700203,-71093.662214
622.399946,-31236.690752,-12583.501014,-76149.892501
622.402515,7550.100608,8142.265362,-72319.415011
622.405084,-8142.265362,5033.400406,-71706.538613
622.407653,-20429.683999,-4737.318029,-83810.847481
622.410222,11843.295072,11399.171507,-72012.976812
622.412791,-9622.677246,-3404.947333,-82738.313784
622.415360,-7550.100608,-7550.100608,-83504.409282
622.417928,-8734.430116,4737.318029,-72166.195912
622.420497,-5773.606348,592.164754,-74617.701505
622.423066,-3108.864956,-3256.906145,-80133.589091
622.425635,-1480.411884,-1924.535449,-77222.426198
622.428204,-16580.613101,-9474.636058,-75843.454302
622.430773,-3256.906145,2960.823768,-70174.347617
622.433342,-19245.354492,-5921.647536,-74311.263306
622.435911,9326.594869,13767.830521,-70174.347617
622.438480,-17024.736666,-10214.842000,-82278.656485
622.441049,592.164754,24278.754898,-65424.555529
622.443617,22798.343014,7698.141797,-81972.218286
622.446186,-18653.189738,5773.606348,-82738.313784
622.448755,36418.132346,27091.537477,-74004.825107
622.451324,888.247130,15396.283594,-61440.858940
622.453893,-14211.954086,-740.205942,-74464.482406
622.456462,18357.107362,11695.253884,-75230.577904
622.459031,2368.659014,1924.535449,-80286.808190
622.461600,-9770.718434,9030.512492,-77988.521696
622.464169,6365.771101,20281.642811,-66803.527426
622.466737,-5329.482782,-592.164754,-77222.426198
622.469306,-2812.782580,2812.782580,-78294.959896
622.471875,13619.789333,15988.448347,-69408.252119
622.474444,2072.576638,7105.977043,-75077.358804
622.477013,16728.654289,13915.871710,-74770.920605
622.479582,-7402.059420,5625.565159,-77835.302597
622.482151,-1628.453072,4737.318029,-76609.549800
622.484720,5181.441594,5477.523971,-77528.864398
622.487289,11991.336260,10066.800811,-74464.482406
622.489857,-13619.789333,-296.082377,-78907.836294
622.492426,15544.324782,23686.590144,-64505.240932
622.494995,-21910.095883,-17912.983796,-84270.504780
622.497564,-44856.480085,-6069.688724,-70940.443115
622.500108,22354.219448,11547.212695,-60521.544342
622.502651,-25759.166782,-11399.171507,-75537.016103
622.505194,-7846.182985,3849.070898,-72932.291410
622.507738,9622.677246,12435.459826,-65884.212828
622.510281,-9178.553681,-9326.594869,-83197.971083
622.512825,6365.771101,9030.512492,-78294.959896
622.515368,-2368.659014,3256.906145,-72932.291410
622.517912,-16432.571912,-4737.318029,-73085.510509
622.520455,-5625.565159,2516.700203,-79673.931792
622.522999,444.123565,4885.359217,-73698.386908
622.525542,-9030.512492,-8586.388927,-79673.931792
622.528085,-11547.212695,592.164754,-71859.757712
622.530629,592.164754,-7254.018232,-75996.673402
622.533172,-14952.160028,-4441.235652,-77528.864398
622.535716,5625.565159,-7994.224174,-77222.426198
622.538259,-19541.436869,7254.018232,-73085.510509
622.540803,20873.807564,6809.894666,-79980.369991
622.543346,-28275.866984,-3552.988522,-85496.257577
622.545890,26055.249158,31532.773129,-68029.280222
622.548433,7254.018232,5329.482782,-72472.634111
622.550976,-9326.594869,5773.606348,-73851.606007
622.553520,14804.118840,12287.418637,-71246.881314
622.556063,1776.494261,-6661.853478,-78141.740796
622.558607,-11399.171507,1036.288319,-77682.083497
622.561150,17616.901420,20873.807564,-66037.431928
622.563694,-5181.441594,7550.100608,-75230.577904
622.566237,-5477.523971,-296.082377,-80593.246390
622.568781,3256.906145,9178.553681,-71093.662214
622.571324,740.205942,-1776.494261,-81206.122788
622.573867,3701.029710,10658.965565,-77528.864398
622.576411,16876.695478,10658.965565,-76915.987999
622.578954,-9326.594869,14804.118840,-72779.072310
622.581498,5625.565159,8734.430116,-73085.510509
622.584041,-3997.112087,5329.482782,-74311.263306
622.586585,1776.494261,-888.247130,-80286.808190
622.589128,1628.453072,19985.560434,-70327.566716
622.591672,10807.006753,2516.700203,-77528.864398
622.594215,-41451.532752,-10214.842000,-77835.302597
622.596758,29756.278868,11695.253884,-69867.909418
622.599302,-25611.125593,-30644.525999,-91318.583362
622.601854,-2368.659014,-5921.647536,-79061.055394
622.604405,7550.100608,-740.205942,-74770.920605
622.606957,-23242.466579,-8882.471304,-79214.274493
622.609509,-888.247130,13619.789333,-71859.757712
622.612060,5773.606348,7846.182985,-71093.662214
622.614612,-14804.118840,-4293.194464,-80133.589091
622.617164,2960.823768,8586.388927,-69867.909418
622.619716,-3404.947333,-1332.370696,-75537.016103
622.622267,-14508.036463,-6809.894666,-78294.959896
622.624819,-3404.947333,5625.565159,-70940.443115
622.627371,-7698.141797,-6217.729913,-77375.645298
622.629923,-13767.830521,-5921.647536,-76762.768900
622.632474,1036.288319,-1480.411884,-76915.987999
622.635026,-26203.290347,-8734.430116,-74770.920605
622.637578,10955.047942,14508.036463,-69255.033019
622.640129,-9030.512492,-9622.677246,-80286.808190
622.642681,-5921.647536,19837.519246,-67569.622924
622.645233,29904.320057,17172.777854,-76149.892501
622.647785,-26351.331535,1776.494261,-82738.313784
622.650336,29312.155303,29312.155303,-67876.061123
622.652888,-5329.482782,6513.812290,-73391.948708
622.655440,-15248.242405,444.123565,-78294.959896
622.657991,20133.601622,11843.295072,-70940.443115
622.660543,8734.430116,5329.482782,-76915.987999
622.663095,-11843.295072,5181.441594,-81052.903688
622.665647,7550.100608,20281.642811,-67109.965625
622.668198,-3256.906145,1036.288319,-72166.195912
622.670750,-3849.070898,4885.359217,-71859.757712
622.673302,12731.542202,17912.983796,-70480.785816
622.675854,2960.823768,9622.677246,-76149.892501
622.678405,3997.112087,18357.107362,-74924.139704
622.680957,3552.988522,7402.059420,-75690.235202
622.683509,-4737.318029,4145.153275,-78601.398095
622.686060,6513.812290,1924.535449,-77835.302597
622.688612,17468.860231,11695.253884,-72932.291410
622.691164,-14508.036463,-6365.771101,-85189.819378
622.693716,-28423.908173,4589.276840,-70787.224015
622.696267,21614.013506,7698.141797,-68488.937521
622.698819,-46188.850781,-26795.455100,-81665.780087
622.701371,15988.448347,4737.318029,-69101.813920
622.703900,740.205942,-7105.977043,-76456.330700
622.706430,-15988.448347,-6809.894666,-80593.246390
622.708960,-4145.153275,15100.201217,-73238.729609
622.711490,-4589.276840,888.247130,-78448.178995
622.714019,-444.123565,2812.782580,-75383.797003
622.716549,5625.565159,9030.512492,-63739.145434
622.719079,-9030.512492,-2516.700203,-74770.920605
622.721609,-9918.759623,-1332.370696,-79673.931792
622.724138,6069.688724,7105.977043,-67722.842023
622.726668,-10066.800811,-5181.441594,-74770.920605
622.729198,-13471.748144,-5477.523971,-78601.398095
622.731728,-4145.153275,-2664.741391,-77682.083497
622.734257,-24278.754898,-7994.224174,-72779.072310
622.736787,10214.842000,12435.459826,-69714.690318
622.739317,-7994.224174,-8290.306550,-79214.274493
622.741847,-3997.112087,19837.519246,-68182.499322
622.744376,30348.443622,18061.024985,-76456.330700
622.746906,-26499.372724,3108.864956,-82585.094684
622.749436,27831.743419,30052.361245,-66190.651027
622.751965,-4293.194464,6513.812290,-71859.757712
622.754495,-13767.830521,-296.082377,-79980.369991
622.757025,15248.242405,6957.935855,-75996.673402
622.759555,-5181.441594,-6365.771101,-74770.920605
622.762084,-12879.583391,5329.482782,-81206.122788
622.764614,6957.935855,20133.601622,-66190.651027
622.767144,-2812.782580,1924.535449,-71859.757712
622.769674,-2960.823768,2516.700203,-74004.825107
622.772203,12435.459826,18801.230927,-69408.252119
622.774733,2220.617826,9918.759623,-75383.797003
622.777263,-740.205942,17024.736666,-73391.948708
622.779793,2220.617826,9030.512492,-75537.016103
622.782322,-7254.018232,5625.565159,-79673.931792
622.784852,5033.400406,3701.029710,-78601.398095
622.787382,12731.542202,19097.313304,-69867.909418
622.789912,-6957.935855,-7994.224174,-84423.723880
622.792441,-25611.125593,7846.182985,-70021.128517
622.794971,22502.260637,10658.965565,-68335.718422
622.797501,-19245.354492,-31680.814318,-88713.858668
622.800030,-4737.318029,-4885.359217,-77988.521696
622.802560,6513.812290,-1924.535449,-78141.740796
622.805101,-21169.889941,-7254.018232,-79214.274493
622.807642,-2072.576638,12287.418637,-72012.976812
622.810183,592.164754,8142.265362,-70940.443115
622.812724,-16136.489536,-3997.112087,-81206.122788
622.815265,-3849.070898,8586.388927,-71553.319513
622.817806,-6069.688724,4589.276840,-76456.330700
622.820346,-18357.107362,-6365.771101,-80133.589091
622.822887,-1924.535449,6661.853478,-70327.566716
622.825428,-10510.924376,-7402.059420,-75537.016103
622.827969,-9326.594869,-3552.988522,-74464.482406
622.830510,-6069.688724,-4441.235652,-75383.797003
622.833051,-8882.471304,-11843.295072,-74617.701505
622.835592,-11695.253884,4441.235652,-73698.386908
622.838133,17468.860231,7402.059420,-78907.836294
622.840673,-25611.125593,-3404.947333,-84576.942979
622.843214,25463.084405,36122.049970,-65118.117330
622.845755,4145.153275,4589.276840,-74311.263306
622.848296,-14952.160028,4589.276840,-74311.263306
622.850837,12879.583391,15248.242405,-69255.033019
622.853378,-22798.343014,-7402.059420,-78754.617194
622.855919,10510.924376,11695.253884,-71246.881314
622.858460,18505.148550,15396.283594,-68642.156621
622.861000,-14359.995275,3404.947333,-78907.836294
622.863541,-4145.153275,-1036.288319,-79827.150892
622.866082,12139.377449,10362.883188,-68795.375720
622.868623,1924.535449,148.041188,-80286.808190
622.871164,7402.059420,9770.718434,-81206.122788
622.873705,9622.677246,13471.748144,-76762.768900
622.876246,-12731.542202,1332.370696,-75996.673402
622.878787,6365.771101,9770.718434,-71400.100414
622.881328,-3552.988522,6365.771101,-74158.044206
622.883868,15544.324782,9326.594869,-76456.330700
622.886409,-9622.677246,2220.617826,-78754.617194
622.888950,6809.894666,16136.489536,-68642.156621
622.891491,-18505.148550,-14508.036463,-77682.083497
622.894032,-20725.766376,7254.018232,-69561.471218
622.896573,20281.642811,7698.141797,-65118.117330
622.899114,-15840.407159,-6217.729913,-73238.729609
622.901655,-8586.388927,2516.700203,-74464.482406
622.904195,3256.906145,10214.842000,-67569.622924
622.906746,-3997.112087,-6069.688724,-80286.808190
622.909297,-2368.659014,4885.359217,-77988.521696
622.911847,-1480.411884,7698.141797,-68948.594820
622.914398,-1036.288319,-1184.329507,-75996.673402
622.916948,-16284.530724,-5329.482782,-79214.274493
622.919499,296.082377,1924.535449,-70940.443115
622.922049,-12287.418637,-7254.018232,-71859.757712
622.924600,-3552.988522,-4885.359217,-75690.235202
622.927150,-4441.235652,-3404.947333,-75077.358804
622.929701,-18949.272115,-10066.800811,-73238.729609
622.932251,2960.823768,9918.759623,-67416.403824
622.934802,20577.725188,12139.377449,-78601.398095
622.937352,-20873.807564,-4441.235652,-87181.667672
622.939903,23834.631332,37306.379477,-65424.555529
622.942453,8142.265362,5033.400406,-73545.167808
622.945004,-18357.107362,4885.359217,-73238.729609
622.947554,16136.489536,12879.583391,-71400.100414
622.950105,-23538.548956,-6661.853478,-78141.740796
622.952655,8734.430116,11103.089130,-73085.510509
622.955206,17024.736666,17764.942608,-67416.403824
622.957756,-7846.182985,1924.535449,-78907.836294
622.960307,-148.041188,14952.160028,-71093.662214
622.962857,3849.070898,9622.677246,-68182.499322
622.965408,-7254.018232,3404.947333,-76609.549800
622.967958,8290.306550,12287.418637,-81665.780087
622.970509,1924.535449,11547.212695,-78294.959896
622.973059,-9770.718434,6217.729913,-71706.538613
622.975610,6661.853478,9030.512492,-71553.319513
622.978160,-2812.782580,1480.411884,-77835.302597
622.980711,23538.548956,14508.036463,-77069.207099
622.983261,-9770.718434,-9770.718434,-87334.886772
622.985812,-14656.077652,14063.912898,-68642.156621
622.988363,5477.523971,-4737.318029,-69101.813920
622.990913,-48261.427418,-6809.894666,-66650.308326
622.993464,22058.137072,10362.883188,-62973.049936
622.996014,-18801.230927,-5181.441594,-74158.044206
622.998565,-13175.665768,3552.988522,-76303.111601
623.001115,8438.347739,12879.583391,-66343.870127
623.003666,-148.041188,2960.823768,-77069.207099
623.006216,-10214.842000,-3997.112087,-78907.836294
623.008745,296.082377,9770.718434,-64964.898230
623.011275,-4589.276840,-296.082377,-75690.235202
623.013804,-16580.613101,-6069.688724,-80440.027290
623.016334,0.000000,1480.411884,-71093.662214
623.018863,-15840.407159,-8438.347739,-73545.167808
623.021392,-592.164754,-2516.700203,-75077.358804
623.023922,-7698.141797,-3552.988522,-76915.987999
623.026451,-12731.542202,-11695.253884,-76609.549800
623.028980,-7105.977043,6513.812290,-70787.224015
623.031510,15988.448347,3849.070898,-76915.987999
623.034039,-22354.219448,1776.494261,-82278.656485
623.036568,9622.677246,28868.031738,-68948.594820
623.039098,18505.148550,13323.706956,-74464.482406
623.041627,-17912.983796,-9326.594869,-82585.094684
623.044156,16136.489536,8290.306550,-75077.358804
623.046686,-8586.388927,-8586.388927,-79673.931792
623.049215,-6217.729913,7254.018232,-77682.083497
623.051745,14359.995275,21762.054695,-67876.061123
623.054274,-6661.853478,6217.729913,-77375.645298
623.056803,-1924.535449,2516.700203,-77682.083497
623.059333,9622.677246,10807.006753,-68182.499322
623.061862,-4441.235652,1776.494261,-81206.122788
623.064391,13027.624579,18357.107362,-78601.398095
623.066921,-4441.235652,7994.224174,-82125.437386
623.069450,-8882.471304,3108.864956,-71093.662214
623.071979,7105.977043,8290.306550,-75690.235202
623.074509,3256.906145,-592.164754,-83044.751983
623.077038,1924.535449,18653.189738,-77682.083497
623.079567,16580.613101,592.164754,-82125.437386
623.082097,-45152.562462,-10658.965565,-73698.386908
623.084626,26795.455100,7846.182985,-65730.993728
623.087155,-32717.102636,-32272.979071,-88254.201370
623.089685,1184.329507,-6809.894666,-81206.122788
623.092214,9622.677246,4737.318029,-72166.195912
623.094744,-18505.148550,-7994.224174,-77682.083497
623.097273,-7105.977043,13471.748144,-70787.224015
623.099802,4293.194464,5625.565159,-72012.976812
623.102332,-18653.189738,-6957.935855,-83351.190182
623.104861,-2220.617826,-1480.411884,-83197.971083
623.107390,-3997.112087,7698.141797,-72166.195912
623.109931,-13471.748144,-8586.388927,-75077.358804
623.112472,-8438.347739,-1628.453072,-72932.291410
623.115014,-444.123565,-9918.759623,-76303.111601
623.117555,-12879.583391,-2368.659014,-76456.330700
623.120096,-9622.677246,-10066.800811,-79061.055394
623.122637,444.123565,3849.070898,-70480.785816
623.125178,-23982.672521,-14804.118840,-82278.656485
623.127719,14952.160028,28127.825796,-63279.488135
623.130260,22946.384202,6217.729913,-79673.931792
623.132801,-11547.212695,13027.624579,-77988.521696
623.135342,30940.608376,26203.290347,-72166.195912
623.137883,11399.171507,7105.977043,-67722.842023
623.140424,-14804.118840,-3404.947333,-76303.111601
623.142965,15396.283594,8734.430116,-75077.358804
623.145506,-4293.194464,-2812.782580,-85496.257577
623.148047,888.247130,12879.583391,-78907.836294
623.150588,9474.636058,21169.889941,-65118.117330
623.153129,-4737.318029,-4737.318029,-79520.712692
623.155671,-1924.535449,14359.995275,-73545.167808
623.158212,14656.077652,18653.189738,-73391.948708
623.160753,-6365.771101,16284.530724,-74158.044206
623.163294,2368.659014,11547.212695,-73085.510509
623.165835,-444.123565,4589.276840,-75230.577904
623.168376,-7550.100608,10658.965565,-77222.426198
623.170917,23834.631332,19541.436869,-70480.785816
623.173458,-16432.571912,-10214.842000,-84423.723880
623.175999,-14359.995275,16728.654289,-69408.252119
623.178540,8586.388927,-6661.853478,-73391.948708
623.181081,-52850.704259,-11251.130318,-67569.622924
623.183622,25759.166782,11843.295072,-61594.078039
623.186163,-17172.777854,-6217.729913,-77682.083497
623.188704,-14211.954086,2516.700203,-79061.055394
623.191254,10807.006753,14804.118840,-63892.364533
623.193804,-7698.141797,-8734.430116,-82431.875585
623.196354,-5625.565159,1480.411884,-81512.560987
623.198904,4441.235652,11695.253884,-71093.662214
623.201455,-12287.418637,-2220.617826,-78448.178995
623.204005,-16876.695478,148.041188,-75690.235202
623.206555,-1332.370696,444.123565,-71859.757712
623.209105,-9918.759623,-10510.924376,-77682.083497
623.211655,-4737.318029,-3108.864956,-77988.521696
623.214205,-11991.336260,-2664.741391,-74158.044206
623.216755,0.000000,-3849.070898,-74617.701505
623.219305,-27535.661042,-7105.977043,-77375.645298
623.221855,28423.908173,25463.084405,-64352.021832
623.224405,-592.164754,0.000000,-84117.285680
623.226955,3997.112087,24870.919651,-77069.207099
623.229505,25167.002028,13323.706956,-81512.560987
623.232055,-18801.230927,-11991.336260,-84117.285680
623.234605,12583.501014,4145.153275,-74004.825107
623.237155,-1036.288319,-5625.565159,-72779.072310
623.239705,-3108.864956,4589.276840,-82278.656485
623.242255,11843.295072,17172.777854,-73238.729609
623.244805,1036.288319,14359.995275,-70940.443115
623.247355,-9030.512492,-7550.100608,-83197.971083
623.249905,-592.164754,11547.212695,-74924.139704
623.252455,10955.047942,10955.047942,-80899.684589
623.255005,-1184.329507,19393.395680,-72012.976812
623.257555,7550.100608,9918.759623,-69561.471218
623.260106,-3997.112087,3997.112087,-70940.443115
623.262656,-296.082377,5625.565159,-77222.426198
623.265206,19097.313304,11843.295072,-77222.426198
623.267756,-17172.777854,1480.411884,-79673.931792
623.270306,20577.725188,20577.725188,-67876.061123
623.272856,-23390.507767,-19837.519246,-80593.246390
623.275406,-49741.839302,-14063.912898,-68948.594820
623.277956,25167.002028,10955.047942,-61594.078039
623.280506,-17468.860231,-7254.018232,-78907.836294
623.283056,-13027.624579,3997.112087,-77222.426198
623.285606,11843.295072,14063.912898,-63739.145434
623.288156,-6957.935855,-10214.842000,-80899.684589
623.290706,-7698.141797,3552.988522,-84423.723880
623.293264,-2072.576638,10066.800811,-77222.426198
623.295822,-19245.354492,-4441.235652,-80899.684589
623.298380,-10362.883188,4145.153275,-71400.100414
623.300938,-2812.782580,-148.041188,-70021.128517
623.303496,-9918.759623,-13175.665768,-78907.836294
623.306054,4885.359217,3256.906145,-74311.263306
623.308612,-17912.983796,-4589.276840,-77069.207099
623.311170,-1036.288319,4441.235652,-71093.662214
623.313728,-18209.066173,-10658.965565,-77375.645298
623.316286,5773.606348,26055.249158,-62973.049936
623.318844,22650.301825,13915.871710,-77835.302597
623.321402,-11695.253884,13027.624579,-82278.656485
623.323960,29016.072926,24278.754898,-76915.987999
623.326518,-444.123565,9326.594869,-62053.735338
623.329076,-14211.954086,-6217.729913,-74770.920605
623.331634,18357.107362,6809.894666,-75843.454302
623.334192,-2960.823768,-1628.453072,-84730.162079
623.336750,0.000000,15396.283594,-75537.016103
623.339308,7402.059420,19245.354492,-67109.965625
623.341866,-3701.029710,-1184.329507,-75077.358804
623.344424,1036.288319,14952.160028,-72625.853210
623.346982,16876.695478,20577.725188,-72779.072310
623.349540,-3997.112087,592.164754,-82431.875585
623.352098,1184.329507,8586.388927,-73085.510509
623.354656,6957.935855,9622.677246,-72319.415011
623.357215,-6217.729913,4441.235652,-74464.482406
623.359773,9326.594869,24722.878463,-70940.443115
623.362331,12139.377449,3849.070898,-78294.959896
623.364889,-40119.162056,-10214.842000,-77528.864398
623.367447,26647.413912,10362.883188,-64811.679131
623.370005,-31532.773129,-36418.132346,-90092.830565
623.372563,-3552.988522,-4737.318029,-76609.549800
623.375121,14211.954086,3256.906145,-74311.263306
623.377679,-19689.478057,-7550.100608,-76762.768900
623.380237,-5033.400406,444.123565,-73545.167808
623.382795,12287.418637,11103.089130,-63432.707234
623.385353,-2072.576638,-11399.171507,-83351.190182
623.387911,-2368.659014,1776.494261,-81972.218286
623.390469,-8882.471304,8734.430116,-73085.510509
623.393027,-17764.942608,-8734.430116,-76149.892501
623.395595,-10214.842000,-2368.659014,-70940.443115
623.398159,4293.194464,-3849.070898,-75690.235202
623.400724,-16728.654289,-4293.194464,-79827.150892
623.403289,2516.700203,-11547.212695,-83197.971083
623.405854,-27091.537477,-3552.988522,-75843.454302
623.408418,20873.807564,5477.523971,-79367.493593
623.410983,-19393.395680,-1628.453072,-86262.353075
623.413548,26499.372724,35381.844028,-70021.128517
623.416113,23390.507767,18801.230927,-79367.493593
623.418677,-18505.148550,-11251.130318,-89633.173266
623.421242,6217.729913,2960.823768,-77682.083497
623.423807,3108.864956,-6069.688724,-70480.785816
623.426372,-7402.059420,740.205942,-77222.426198
623.428936,15396.283594,16284.530724,-71706.538613
623.431501,-5329.482782,10362.883188,-75690.235202
623.434066,-3552.988522,-3997.112087,-81512.560987
623.436631,17024.736666,7698.141797,-71400.100414
623.439195,2368.659014,4293.194464,-85189.819378
623.441760,9770.718434,19097.313304,-80440.027290
623.444325,592.164754,3404.947333,-79520.712692
623.446890,-4293.194464,6365.771101,-73391.948708
623.449454,2960.823768,-1036.288319,-80746.465489
623.452019,19837.519246,17468.860231,-75996.673402
623.454584,-9770.718434,-6957.935855,-88560.639569
623.457149,-17024.736666,13471.748144,-68795.375720
623.459713,7698.141797,-5773.606348,-72472.634111
623.462278,-50334.004056,-17616.901420,-72932.291410
623.464843,19245.354492,7698.141797,-64198.802732
623.467408,-12435.459826,-4441.235652,-77835.302597
623.469972,-14359.995275,3108.864956,-79061.055394
623.472537,7402.059420,13915.871710,-69714.690318
623.475102,-5921.647536,-6365.771101,-81665.780087
623.477667,-6809.894666,3404.947333,-79367.493593
623.480231,-296.082377,11103.089130,-69561.471218
623.482796,-3108.864956,-1628.453072,-76456.330700
623.485361,-11547.212695,-10214.842000,-81359.341888
623.487926,-7402.059420,-3997.112087,-71553.319513
623.490490,-3701.029710,-11399.171507,-77069.207099
623.493055,-13619.789333,-1036.288319,-78448.178995
623.495620,-4293.194464,-11103.089130,-79520.712692
623.498190,-17320.819043,5033.400406,-70021.128517
623.500759,20577.725188,-6513.812290,-78907.836294
623.503329,-22946.384202,6513.812290,-76915.987999
623.505899,43079.985824,35677.926404,-70940.443115
623.508468,-8438.347739,8882.471304,-79061.055394
623.511038,-6809.894666,14211.954086,-72166.195912
623.513608,6069.688724,13323.706956,-64964.898230
623.516177,-14952.160028,-11251.130318,-75690.235202
623.518747,-444.123565,5773.606348,-77375.645298
623.521317,16432.571912,18209.066173,-69714.690318
623.523886,-13323.706956,7698.141797,-80133.589091
623.526456,-3108.864956,11103.089130,-74158.044206
623.529026,6365.771101,8438.347739,-69867.909418
623.531596,-2664.741391,10658.965565,-79367.493593
623.534165,10955.047942,21910.095883,-79520.712692
623.536735,-7402.059420,2664.741391,-87028.448573
623.539305,-1036.288319,7994.224174,-76915.987999
623.541874,5773.606348,10066.800811,-70327.566716
623.544444,9474.636058,9770.718434,-74311.263306
623.547014,-6513.812290,6217.729913,-78141.740796
623.549583,9030.512492,18801.230927,-70940.443115
623.552153,-19541.436869,-7402.059420,-72012.976812
623.554723,-45448.644839,-15840.407159,-68948.594820
623.557292,19837.519246,8734.430116,-62513.392637
623.559862,-14063.912898,-7550.100608,-78294.959896
623.562432,-11399.171507,2664.741391,-78294.959896
623.565001,7846.182985,12287.418637,-70480.785816
623.567571,-3256.906145,-7105.977043,-82891.532884
623.570141,-6513.812290,0.000000,-82585.094684
623.572711,-1628.453072,9918.759623,-70787.224015
623.575280,-16580.613101,-2664.741391,-79061.055394
623.577850,-15840.407159,-888.247130,-75537.016103
623.580420,-6513.812290,-3404.947333,-73085.510509
623.582989,-4737.318029,-8734.430116,-76609.549800
623.585559,-4145.153275,740.205942,-75230.577904
623.588129,-1628.453072,-12139.377449,-80593.246390
623.590698,-23982.672521,-2664.741391,-74924.139704
623.593268,23538.548956,5773.606348,-77222.426198
623.595838,-21910.095883,-740.205942,-81972.218286
623.598407,28868.031738,38934.832549,-66650.308326
623.600981,7402.059420,11695.253884,-75996.673402
623.603554,-16284.530724,3404.947333,-77835.302597
623.606127,11843.295072,11695.253884,-70787.224015
623.608701,-20725.766376,-9918.759623,-77988.521696
623.611274,11547.212695,5181.441594,-76149.892501
623.613847,22206.178260,11547.212695,-70634.004916
623.616421,-5033.400406,3256.906145,-80440.027290
623.618994,-3849.070898,13323.706956,-73391.948708
623.621568,20873.807564,9474.636058,-71093.662214
623.624141,6513.812290,9622.677246,-79980.369991
623.626714,2812.782580,16136.489536,-76915.987999
623.629288,3404.947333,6069.688724,-75077.358804
623.631861,-7402.059420,6513.812290,-73545.167808
623.634434,4441.235652,4589.276840,-74617.701505
623.637008,12731.542202,18357.107362,-73391.948708
623.639581,-592.164754,-4441.235652,-87181.667672
623.642154,-24278.754898,7846.182985,-72472.634111
623.644728,11843.295072,-2812.782580,-70787.224015
623.647301,-49297.715737,-24426.796086,-73698.386908
623.649874,15840.407159,5329.482782,-66497.089226
623.652448,-3256.906145,-5773.606348,-77835.302597
623.655021,-16580.613101,1628.453072,-80593.246390
623.657594,-7105.977043,11695.253884,-73545.167808
623.660168,592.164754,8882.471304,-71093.662214
623.662741,-7402.059420,-3552.988522,-78601.398095
623.665315,-4145.153275,9030.512492,-71400.100414
623.667888,-2960.823768,-444.123565,-76303.111601
623.670461,-15248.242405,-8586.388927,-78294.959896
623.673035,-6661.853478,-5477.523971,-73085.510509
623.675608,-5625.565159,-4293.194464,-75690.235202
623.678181,-15988.448347,-1776.494261,-76303.111601
623.680755,4737.318029,-4885.359217,-80593.246390
