#time,accel_x,accel_y,accel_z
14197.538624,5033.400406,6217.729913,-74924.139704
14197.541809,-2960.823768,4885.359217,-81206.122788
14197.544993,-3701.029710,4885.359217,-78754.617194
14197.548178,4293.194464,5181.441594,-79367.493593
14197.551362,-3108.864956,4589.276840,-77528.864398
14197.554547,148.041188,14211.954086,-72932.291410
14197.557731,-1628.453072,16728.654289,-67722.842023
14197.560916,-3404.947333,7550.100608,-67109.965625
14197.564101,-14063.912898,2368.659014,-68795.375720
14197.567285,3701.029710,5773.606348,-70480.785816
14197.570470,-12139.377449,7105.977043,-77375.645298
14197.573654,2220.617826,8882.471304,-78294.959896
14197.576839,-4441.235652,-1628.453072,-85343.038477
14197.580023,1184.329507,7105.977043,-84730.162079
14197.583208,-6217.729913,-1924.535449,-80286.808190
14197.586393,-11547.212695,1480.411884,-50102.645569
14197.589577,-8290.306550,9326.594869,-50868.741067
14197.592762,-2664.741391,4737.318029,-73851.606007
14197.595967,-2368.659014,1036.288319,-94995.841752
14197.599173,-9474.636058,1332.370696,-89633.173266
14197.602379,3108.864956,2516.700203,-85189.819378
14197.605585,-1628.453072,0.000000,-82431.875585
14197.608791,-2516.700203,7846.182985,-72779.072310
14197.611996,-740.205942,5033.400406,-72932.291410
14197.615202,148.041188,5033.400406,-81818.999186
14197.618408,-11695.253884,2072.576638,-79673.931792
14197.621614,-8734.430116,-6217.729913,-73238.729609
14197.624820,-5033.400406,296.082377,-70634.004916
14197.628025,-5329.482782,5181.441594,-72319.415011
14197.631231,-2516.700203,-6217.729913,-84270.504780
14197.634437,-5033.400406,4737.318029,-85189.819378
14197.637643,-1480.411884,2368.659014,-84576.942979
14197.640849,148.041188,5477.523971,-73391.948708
14197.644055,4441.235652,3108.864956,-75230.577904
14197.647260,-19985.560434,-2368.659014,-72625.853210
14197.650466,-12583.501014,7698.141797,-55158.875856
14197.653672,-9030.512492,18505.148550,-35087.173808
14197.656878,-3701.029710,37454.420665,-55771.752254
14197.660084,46484.933158,-7846.182985,-141421.228931
14197.663289,-13619.789333,-22650.301825,-150461.155807
14197.666495,-444.123565,17912.983796,-37079.022103
14197.669701,1924.535449,27091.537477,6741.640382
14197.672887,-19985.560434,23094.425390,-12717.185267
14197.676072,3256.906145,2960.823768,-78601.398095
14197.679258,-6661.853478,-13323.706956,-113075.695505
14197.682443,-888.247130,8142.265362,-78907.836294
14197.685629,11843.295072,13323.706956,-73851.606007
14197.688814,4737.318029,9326.594869,-84270.504780
14197.692000,-1776.494261,888.247130,-92391.117059
14197.695185,-2368.659014,4737.318029,-83657.628382
14197.698371,2072.576638,10362.883188,-58529.696047
14197.701557,-1924.535449,10362.883188,-50255.864669
14197.704742,-9918.759623,7105.977043,-68642.156621
14197.707928,-5625.565159,-4293.194464,-81052.903688
14197.711113,-296.082377,9178.553681,-84730.162079
14197.714299,4145.153275,5921.647536,-76149.892501
14197.717484,-7402.059420,13323.706956,-65271.336430
14197.720670,-3997.112087,19245.354492,-64811.679131
14197.723855,8586.388927,2220.617826,-86262.353075
14197.727041,-2664.741391,3552.988522,-80593.246390
14197.730227,-6957.935855,6069.688724,-76915.987999
14197.733412,888.247130,11103.089130,-69867.909418
14197.736598,0.000000,6809.894666,-77069.207099
14197.739783,-2812.782580,13767.830521,-77222.426198
14197.742969,20725.766376,12731.542202,-85802.695776
14197.746154,-6365.771101,-3849.070898,-93923.308055
14197.749340,-7846.182985,-7105.977043,-102043.920334
14197.752525,-15248.242405,-10955.047942,-63279.488135
14197.755711,-25611.125593,31088.649564,-8886.707777
14197.758897,14211.954086,22206.178260,-59602.229744
14197.762082,7105.977043,-22946.384202,-164557.312970
14197.765268,1036.288319,-18949.272115,-166089.503966
14197.768453,6661.853478,-3108.864956,-110930.628110
14197.771639,-13471.748144,10362.883188,-30490.600820
14197.774846,-7698.141797,15396.283594,-20837.797546
14197.778054,-10362.883188,1184.329507,-77835.302597
14197.781261,-11251.130318,-6365.771101,-104188.987728
14197.784468,-8142.265362,-2220.617826,-85649.476676
14197.787676,5329.482782,6957.935855,-76456.330700
14197.790883,3404.947333,2072.576638,-85496.257577
14197.794090,-9030.512492,1628.453072,-91165.364262
14197.797298,-5625.565159,5921.647536,-81206.122788
14197.800505,-296.082377,-148.041188,-86875.229473
14197.803712,-6661.853478,14804.118840,-57150.724151
14197.806920,-5625.565159,9030.512492,-61900.516238
14197.810127,-6217.729913,-4293.194464,-86262.353075
14197.813335,-9326.594869,-3256.906145,-90092.830565
14197.816542,6661.853478,-2072.576638,-79827.150892
14197.819749,-10362.883188,2516.700203,-75690.235202
14197.822957,-8142.265362,8290.306550,-66956.746525
14197.826164,-2072.576638,4737.318029,-76915.987999
14197.829371,2368.659014,4589.276840,-88100.982270
14197.832579,-7698.141797,-148.041188,-86262.353075
14197.835786,7254.018232,2516.700203,-70940.443115
14197.838993,-296.082377,-7698.141797,-84730.162079
14197.842201,-24130.713709,-1480.411884,-58529.696047
14197.845408,-7994.224174,13767.830521,-37845.117601
14197.848616,-11547.212695,33013.185013,-53626.684860
14197.851823,42783.903448,4293.194464,-129776.577361
14197.855030,5329.482782,-24278.754898,-159501.082684
14197.858238,-10214.842000,-6365.771101,-140195.476134
14197.861445,7698.141797,24574.837274,-42135.252390
14197.864652,-11399.171507,21614.013506,-12257.527968
14197.867860,-6957.935855,8290.306550,-63585.926334
14197.871067,444.123565,-9326.594869,-110777.409011
14197.874274,1628.453072,-2812.782580,-92237.897959
14197.877488,0.000000,8586.388927,-88867.077768
14197.880714,5773.606348,16728.654289,-71553.319513
14197.883941,2960.823768,5477.523971,-85189.819378
14197.887167,-6365.771101,3997.112087,-81206.122788
14197.890393,-7550.100608,8882.471304,-61440.858940
14197.893619,-296.082377,4293.194464,-69561.471218
14197.896846,-11103.089130,14656.077652,-50409.083768
14197.900072,1036.288319,9030.512492,-64198.802732
14197.903298,5033.400406,2812.782580,-87641.324971
14197.906524,1924.535449,6957.935855,-92237.897959
14197.909751,2516.700203,8438.347739,-77988.521696
14197.912977,4441.235652,13323.706956,-76609.549800
14197.916203,-3552.988522,8586.388927,-70327.566716
14197.919429,-888.247130,3404.947333,-68488.937521
14197.922655,-19837.519246,-740.205942,-74464.482406
14197.925882,6661.853478,13767.830521,-64505.240932
14197.929108,-4441.235652,3849.070898,-70327.566716
14197.932334,-19245.354492,17320.819043,-56078.190454
14197.935560,17764.942608,20281.642811,-77222.426198
14197.938787,11547.212695,-5625.565159,-122422.060580
14197.942013,-4145.153275,-19393.395680,-114607.886501
14197.945239,-44116.274143,8438.347739,-32176.010916
14197.948465,-1924.535449,35825.967593,7507.735880
14197.951692,5181.441594,25167.002028,-3524.039291
14197.954918,-9178.553681,-5033.400406,-102350.358533
14197.958144,7105.977043,-18061.024985,-149388.622110
14197.961370,-9178.553681,-1628.453072,-94382.965354
14197.964597,888.247130,23538.548956,-23442.522239
14197.967823,-4737.318029,9622.677246,-51634.836565
14197.971049,-9326.594869,5477.523971,-53626.684860
14197.974275,-8734.430116,-4589.276840,-83197.971083
14197.977502,-1628.453072,-2664.741391,-86415.572174
14197.980744,-4737.318029,9622.677246,-68642.156621
14197.983986,-2812.782580,1332.370696,-70480.785816
14197.987228,-11843.295072,148.041188,-78294.959896
14197.990470,-4145.153275,2960.823768,-85036.600278
14197.993712,-1480.411884,8290.306550,-73085.510509
14197.996954,-11399.171507,2812.782580,-71859.757712
14198.000196,1628.453072,5921.647536,-75077.358804
14198.003439,3849.070898,4885.359217,-78754.617194
14198.006681,-3701.029710,-9178.553681,-87641.324971
14198.009923,-10066.800811,4885.359217,-82585.094684
14198.013165,-5477.523971,3701.029710,-71246.881314
14198.016407,-3552.988522,12879.583391,-56997.505051
14198.019649,-15840.407159,2220.617826,-70940.443115
14198.022891,-296.082377,8438.347739,-77528.864398
14198.026133,16136.489536,5033.400406,-92237.897959
14198.029376,9770.718434,-11843.295072,-113535.352804
14198.032618,-22650.301825,-6217.729913,-84423.723880
14198.035860,-17616.901420,17024.736666,-10265.679673
14198.039102,-6809.894666,38194.626607,-10265.679673
14198.042344,27535.661042,-3997.112087,-37845.117601
14198.045586,3108.864956,-11251.130318,-142187.324429
14198.048828,9474.636058,-3404.947333,-140348.695234
14198.052070,-2220.617826,13027.624579,-60827.982541
14198.055313,-5625.565159,30200.402434,-19918.482948
14198.058555,3552.988522,5329.482782,-70634.004916
14198.061797,-888.247130,592.164754,-75537.016103
14198.065039,-4885.359217,-3256.906145,-99592.414740
14198.068281,4885.359217,15100.201217,-75383.797003
14198.071523,-4737.318029,13323.706956,-66803.527426
14198.074765,-6957.935855,9474.636058,-79673.931792
14198.078007,2072.576638,7254.018232,-84270.504780
14198.081249,6069.688724,-1924.535449,-87334.886772
14198.084505,-1332.370696,7402.059420,-79367.493593
14198.087760,-4293.194464,14063.912898,-65424.555529
14198.091016,592.164754,11103.089130,-70940.443115
14198.094271,2516.700203,7846.182985,-81665.780087
14198.097526,5477.523971,11103.089130,-79367.493593
14198.100782,-6809.894666,4293.194464,-80133.589091
14198.104037,3256.906145,13767.830521,-71400.100414
14198.107293,5329.482782,1184.329507,-77682.083497
14198.110548,8438.347739,6513.812290,-83657.628382
14198.113803,-1184.329507,-444.123565,-87028.448573
14198.117059,-11547.212695,592.164754,-80593.246390
14198.120314,-25463.084405,17616.901420,-42594.909689
14198.123569,20725.766376,21465.972318,-45659.291681
14198.126825,7105.977043,-5625.565159,-107253.369720
14198.130080,-5477.523971,-30940.608376,-137743.970540
14198.133336,-30348.443622,4737.318029,-50868.741067
14198.136591,-7550.100608,18801.230927,-25894.027832
14198.139846,-10658.965565,18209.066173,-10418.898773
14198.143102,-8882.471304,6069.688724,-74924.139704
14198.146357,3701.029710,-18801.230927,-132994.178453
14198.149612,-8734.430116,3108.864956,-90246.049664
14198.152868,2072.576638,15692.365970,-49796.207370
14198.156123,-592.164754,13175.665768,-48264.016374
14198.159379,-7254.018232,-296.082377,-72319.415011
14198.162634,-2220.617826,-1036.288319,-88100.982270
14198.165889,-2664.741391,148.041188,-80440.027290
14198.169145,-7402.059420,7846.182985,-64045.583633
14198.172400,-9622.677246,9770.718434,-63892.364533
14198.175655,-10066.800811,4737.318029,-74924.139704
14198.178911,-6365.771101,1628.453072,-85802.695776
14198.182166,-4441.235652,-444.123565,-77069.207099
14198.185422,-13767.830521,-888.247130,-70327.566716
14198.188650,-740.205942,1776.494261,-71706.538613
14198.191878,5329.482782,5477.523971,-71246.881314
14198.195106,-4589.276840,-2812.782580,-88254.201370
14198.198334,-11843.295072,4885.359217,-80133.589091
14198.201562,-8290.306550,-2960.823768,-67569.622924
14198.204791,-18949.272115,6069.688724,-47804.359075
14198.208019,6365.771101,13027.624579,-67263.184724
14198.211247,21021.848753,20133.601622,-81512.560987
14198.214475,16580.613101,-9918.759623,-131768.425656
14198.217703,-23538.548956,-16432.571912,-106946.931521
14198.220931,-11547.212695,24130.713709,-2451.505594
14198.224160,-5033.400406,28571.949361,-6894.859482
14198.227388,-888.247130,592.164754,-100664.948437
14198.230616,2960.823768,-1332.370696,-105414.740525
14198.233844,3404.947333,-5329.482782,-121196.307784
14198.237072,6661.853478,17616.901420,-66803.527426
14198.240300,-3108.864956,11547.212695,-54852.437657
14198.243529,0.000000,6513.812290,-68795.375720
14198.246757,8882.471304,9030.512492,-80440.027290
14198.249985,6513.812290,4145.153275,-78601.398095
14198.253213,-12583.501014,8290.306550,-63585.926334
14198.256441,-740.205942,9622.677246,-60061.887043
14198.259669,-4145.153275,3108.864956,-79980.369991
14198.262898,-5477.523971,-1184.329507,-89479.954166
14198.266126,3404.947333,6365.771101,-91012.145162
14198.269354,-2812.782580,8290.306550,-81512.560987
14198.272582,1332.370696,16432.571912,-68335.718422
14198.275810,4145.153275,13767.830521,-67876.061123
14198.279038,-6513.812290,4737.318029,-78294.959896
14198.282267,1628.453072,6661.853478,-84270.504780
14198.285495,2664.741391,4441.235652,-87641.324971
14198.288723,6365.771101,19097.313304,-75690.235202
14198.291967,9030.512492,11695.253884,-82125.437386
14198.295211,-7846.182985,1776.494261,-78754.617194
14198.298455,-19837.519246,10362.883188,-58836.134246
14198.301699,-11547.212695,12731.542202,-38764.432199
14198.304942,11547.212695,21317.931130,-49642.988270
14198.308186,3552.988522,-15100.201217,-133913.493050
14198.311430,-2368.659014,-14804.118840,-122422.060580
14198.314674,-13175.665768,14508.036463,-34627.516510
14198.317918,-15100.201217,19393.395680,-12410.747068
14198.321162,-11991.336260,19097.313304,-26047.246932
14198.324406,-2664.741391,-10658.965565,-92850.774358
14198.327650,-4885.359217,-7105.977043,-114607.886501
14198.330894,-4145.153275,8586.388927,-78754.617194
14198.334137,444.123565,15840.407159,-51481.617466
14198.337381,-12731.542202,1480.411884,-76149.892501
14198.340625,2516.700203,7254.018232,-84730.162079
14198.343869,4589.276840,2220.617826,-94842.622652
14198.347113,-6365.771101,444.123565,-79214.274493
14198.350357,-5921.647536,14359.995275,-52707.370262
14198.353601,-9918.759623,6513.812290,-69561.471218
14198.356845,148.041188,-3256.906145,-92544.336158
14198.360089,-10955.047942,-10362.883188,-91318.583362
14198.363332,-7254.018232,-2072.576638,-82738.313784
14198.366576,148.041188,10658.965565,-73851.606007
14198.369820,-3108.864956,6809.894666,-70174.347617
14198.373064,-8290.306550,3997.112087,-75537.016103
14198.376308,-1332.370696,-7254.018232,-89633.173266
14198.379552,-15248.242405,-740.205942,-71859.757712
14198.382796,-6661.853478,15988.448347,-60981.201641
14198.386040,23390.507767,10214.842000,-89939.611465
14198.389284,5625.565159,-7698.141797,-113841.791003
14198.392528,-29756.278868,-4293.194464,-75230.577904
14198.395785,-21021.848753,8290.306550,-41675.595091
14198.399042,1924.535449,29608.237680,-4749.792088
14198.402299,-10214.842000,8142.265362,-66037.431928
14198.405556,5625.565159,444.123565,-128550.824564
14198.408813,10362.883188,4145.153275,-112156.380907
14198.412070,-296.082377,21317.931130,-87334.886772
14198.415327,-888.247130,13471.748144,-53933.123059
14198.418584,3108.864956,11251.130318,-57303.943250
14198.421841,-4885.359217,2072.576638,-80286.808190
14198.425098,10214.842000,8438.347739,-79214.274493
14198.428355,-11399.171507,9474.636058,-63432.707234
14198.431612,-7105.977043,6069.688724,-66190.651027
14198.434869,3552.988522,13915.871710,-76609.549800
14198.438126,1184.329507,-2072.576638,-91165.364262
14198.441383,0.000000,3701.029710,-81206.122788
14198.444640,-2664.741391,16136.489536,-60521.544342
14198.447897,-7105.977043,13767.830521,-61594.078039
14198.451154,-6809.894666,5773.606348,-61747.297139
14198.454411,12139.377449,9770.718434,-81052.903688
14198.457668,5033.400406,1332.370696,-97907.004644
14198.460925,6809.894666,12287.418637,-86722.010374
14198.464182,4145.153275,5329.482782,-75996.673402
14198.467439,-29460.196492,9622.677246,-46731.825378
14198.470696,-20873.807564,16432.571912,-43667.443386
14198.500109,-4737.318029,2664.741391,-82431.875585
14198.503377,-2072.576638,14952.160028,-52707.370262
14198.506645,-10807.006753,8142.265362,-58070.038748
14198.509914,-4885.359217,3849.070898,-71553.319513
14198.513182,-444.123565,-1776.494261,-89020.296868
14198.516450,-7105.977043,6365.771101,-79673.931792
14198.519718,-1036.288319,3997.112087,-64964.898230
14198.522986,-6513.812290,8290.306550,-60521.544342
14198.526254,-17764.942608,2220.617826,-79980.369991
14198.529523,-3404.947333,-740.205942,-77682.083497
14198.532791,148.041188,-4589.276840,-82738.313784
14198.536059,-5181.441594,2220.617826,-76915.987999
14198.539327,-5921.647536,6513.812290,-66190.651027
14198.542595,-1036.288319,6661.853478,-69255.033019
14198.545863,-17468.860231,-3404.947333,-83504.409282
14198.549131,-7254.018232,8290.306550,-72472.634111
14198.552400,14211.954086,-2960.823768,-89020.296868
14198.555668,-24574.837274,-5477.523971,-74464.482406
14198.558936,-10214.842000,13323.706956,-45659.291681
14198.562204,-5181.441594,28868.031738,-42748.128788
14198.565472,28868.031738,7105.977043,-43207.786087
14198.568740,26203.290347,-4145.153275,-131615.206556
14198.572009,-6069.688724,-9770.718434,-138356.846939
14198.575277,10807.006753,11991.336260,-62513.392637
14198.578554,-4145.153275,27239.578666,-14555.814462
14198.581831,-3997.112087,6661.853478,-61287.639840
14198.585107,1776.494261,0.000000,-85036.600278
14198.588384,-11399.171507,-8438.347739,-98979.538342
14198.591661,-7698.141797,5181.441594,-73238.729609
14198.594938,5625.565159,20133.601622,-55924.971354
14198.598215,4293.194464,13619.789333,-78754.617194
14198.601492,-3701.029710,-6661.853478,-98366.661943
14198.604769,-4293.194464,740.205942,-103116.454031
14198.608046,7254.018232,5477.523971,-77835.302597
14198.611323,2516.700203,15692.365970,-47497.920876
14198.614600,-5033.400406,17764.942608,-52094.493864
14198.617876,-7254.018232,7846.182985,-86875.229473
14198.621153,-5329.482782,0.000000,-87334.886772
14198.624430,5921.647536,1480.411884,-85649.476676
14198.627707,3997.112087,16876.695478,-62666.611736
14198.630984,-11103.089130,22946.384202,-66190.651027
14198.634261,9918.759623,12583.501014,-89479.954166
14198.637538,-2072.576638,-8438.347739,-110777.409011
14198.640815,-11251.130318,-9326.594869,-102197.139433
14198.644092,-25315.043216,8734.430116,-40756.280494
14198.647369,2072.576638,33309.267390,-23595.741338
14198.650645,13767.830521,-296.082377,-118591.583090
14198.653922,11103.089130,-27831.743419,-157049.577090
14198.657199,-19837.519246,4589.276840,-65730.993728
14198.660476,-17912.983796,3552.988522,-55312.094956
14198.663753,-8586.388927,24574.837274,-8427.050478
14198.667030,-10066.800811,-3108.864956,-66190.651027
14198.670307,-1332.370696,-8142.265362,-113535.352804
14198.673584,0.000000,2072.576638,-97600.566445
14198.676861,-6217.729913,10510.924376,-60215.106143
14198.680138,-9622.677246,11695.253884,-60674.763442
14198.683422,5773.606348,5773.606348,-75537.016103
14198.686705,-5329.482782,6365.771101,-84270.504780
14198.689989,592.164754,444.123565,-81972.218286
14198.693273,-7402.059420,8586.388927,-67722.842023
14198.696557,-12139.377449,6217.729913,-64505.240932
14198.699841,5033.400406,0.000000,-73391.948708
14198.703125,2664.741391,-1036.288319,-87334.886772
14198.706409,-18061.024985,1184.329507,-81359.341888
14198.709693,-6957.935855,8586.388927,-67416.403824
14198.712977,-12139.377449,-3552.988522,-63279.488135
14198.716261,-6513.812290,11103.089130,-55771.752254
14198.719545,19097.313304,-1480.411884,-96834.470947
14198.722829,-21169.889941,-9622.677246,-101277.824836
14198.726113,-28275.866984,7105.977043,-56078.190454
14198.729397,3108.864956,29608.237680,-14402.595362
14198.732681,19985.560434,17468.860231,-74617.701505
14198.735965,13767.830521,6365.771101,-103269.673130
14198.739249,5625.565159,-12879.583391,-156283.481592
14198.742533,14804.118840,2960.823768,-97294.128246
14198.745817,-3552.988522,28868.031738,-22676.426741
14198.749101,2960.823768,11103.089130,-43207.786087
14198.752385,2368.659014,5181.441594,-69408.252119
14198.755669,-16284.530724,-4885.359217,-86109.133975
14198.758953,-3701.029710,1184.329507,-79520.712692
14198.762237,2664.741391,17172.777854,-67416.403824
14198.765521,-888.247130,14952.160028,-84576.942979
14198.768805,4293.194464,-1184.329507,-90705.706963
14198.772089,-1184.329507,2960.823768,-96374.813648
14198.775373,6365.771101,13915.871710,-84117.285680
14198.778657,9770.718434,13323.706956,-68642.156621
14198.781941,-11251.130318,11399.171507,-61287.639840
14198.785224,-592.164754,5921.647536,-72166.195912
14198.788514,4293.194464,9918.759623,-72472.634111
14198.791803,296.082377,10362.883188,-75843.454302
14198.795092,7254.018232,21762.054695,-71093.662214
14198.798381,8882.471304,7846.182985,-93463.650756
14198.801670,-13471.748144,740.205942,-88100.982270
14198.804959,-14359.995275,3997.112087,-79061.055394
14198.808249,12287.418637,17320.819043,-56997.505051
14198.811538,-3108.864956,9326.594869,-76456.330700
14198.814827,3997.112087,-20725.766376,-126558.976270
14198.818116,-22946.384202,-4293.194464,-76456.330700
14198.821405,-9474.636058,23094.425390,-6281.983084
14198.824694,-13471.748144,15840.407159,-9806.022374
14198.827984,-10362.883188,6513.812290,-56997.505051
14198.831273,-4145.153275,-13175.665768,-121349.526883
14198.834562,592.164754,-3108.864956,-101584.263035
14198.837851,-888.247130,14359.995275,-62360.173537
14198.841140,-5773.606348,16432.571912,-58529.696047
14198.844429,-3997.112087,2516.700203,-63432.707234
14198.847718,-2960.823768,-888.247130,-79061.055394
14198.851008,3552.988522,10362.883188,-78907.836294
14198.854297,0.000000,-296.082377,-75996.673402
14198.857586,-20133.601622,5477.523971,-63892.364533
14198.860875,-12435.459826,4293.194464,-70174.347617
14198.864164,5181.441594,1924.535449,-75383.797003
14198.867453,-9918.759623,-1184.329507,-81818.999186
14198.870743,-7550.100608,2220.617826,-81512.560987
14198.874032,-1924.535449,6217.729913,-76149.892501
14198.877321,-6513.812290,-5625.565159,-78141.740796
14198.880610,-14063.912898,-4145.153275,-86875.229473
14198.883899,-6809.894666,12731.542202,-65424.555529
14198.887188,3849.070898,17320.819043,-74617.701505
14198.890477,17024.736666,-3552.988522,-104342.206828
14198.893764,-17468.860231,-13767.830521,-94689.403553
14198.897058,-21614.013506,22502.260637,-15015.471761
14198.900351,-6957.935855,26647.413912,-6435.202183
14198.903645,-11399.171507,15544.324782,-41982.033290
14198.906938,2664.741391,7550.100608,-109704.875314
14198.910232,11843.295072,-3108.864956,-122728.498780
14198.913525,5477.523971,17024.736666,-71093.662214
14198.916819,5477.523971,15544.324782,-67416.403824
14198.920112,10510.924376,13619.789333,-65884.212828
14198.923406,-740.205942,-1036.288319,-82278.656485
14198.926699,-10066.800811,3404.947333,-73085.510509
14198.929993,592.164754,10955.047942,-55618.533155
14198.933287,-6809.894666,9918.759623,-59602.229744
14198.936580,-4441.235652,18505.148550,-53933.123059
14198.939874,8734.430116,5921.647536,-95455.499051
14198.943167,5773.606348,-1480.411884,-112922.476405
14198.946461,-1628.453072,6809.894666,-87641.324971
14198.949754,888.247130,17172.777854,-53779.903960
14198.953048,-6365.771101,12287.418637,-59295.791545
14198.956341,-12287.418637,17468.860231,-60215.106143
14198.959635,11399.171507,6513.812290,-89633.173266
14198.962928,-5329.482782,-2664.741391,-99745.633840
14198.966222,-6809.894666,16432.571912,-63432.707234
14198.969516,14211.954086,19097.313304,-60521.544342
14198.972809,7994.224174,17024.736666,-68029.280222
14198.976103,10658.965565,-13323.706956,-140655.133433
14198.979396,-7402.059420,-18801.230927,-112003.161808
14198.982690,-21021.848753,16432.571912,-19458.825649
14198.985983,-10807.006753,18653.189738,-4903.011187
14198.989277,-8142.265362,-4589.276840,-76303.111601
14198.992570,-7402.059420,-11399.171507,-95608.718150
14198.995864,-1628.453072,-3701.029710,-110164.532612
14198.999161,-2516.700203,8290.306550,-77222.426198
14199.002457,296.082377,17912.983796,-57916.819649
14199.005754,-1332.370696,1776.494261,-77375.645298
14199.009051,2368.659014,-1924.535449,-94842.622652
14199.012348,-5181.441594,2960.823768,-83964.066581
14199.015645,-9030.512492,3849.070898,-61900.516238
14199.018941,-11399.171507,8734.430116,-51941.274764
14199.022238,-8734.430116,8734.430116,-65730.993728
14199.025535,-740.205942,-1628.453072,-95761.937250
14199.028832,-2072.576638,-7402.059420,-91778.240660
14199.032129,-8586.388927,3256.906145,-85955.914876
14199.035425,-10362.883188,-2516.700203,-74158.044206
14199.038722,-11547.212695,12435.459826,-55465.314055
14199.042019,11843.295072,5625.565159,-75690.235202
14199.045316,-9770.718434,-11251.130318,-91471.802461
14199.048613,-23390.507767,-10066.800811,-94842.622652
14199.051909,-16136.489536,12139.377449,-39377.308597
14199.055206,-1332.370696,33605.349767,-18999.168350
14199.058503,18653.189738,7105.977043,-101737.482134
14199.061800,2220.617826,-8882.471304,-149541.841210
14199.065097,11843.295072,-1924.535449,-148316.088413
14199.068393,-740.205942,17616.901420,-81206.122788
14199.071690,2220.617826,27683.702231,-31563.134518
14199.074987,8438.347739,5921.647536,-64964.898230
14199.078284,-16728.654289,-4145.153275,-88867.077768
14199.081581,-5329.482782,-592.164754,-84423.723880
14199.084877,-1184.329507,5921.647536,-70327.566716
14199.088174,-1036.288319,14804.118840,-60981.201641
14199.091471,1332.370696,5329.482782,-77528.864398
14199.094768,6069.688724,1184.329507,-97753.785545
14199.098065,2664.741391,8142.265362,-88254.201370
14199.101361,3404.947333,7846.182985,-68642.156621
14199.104661,6513.812290,12731.542202,-72625.853210
14199.107960,-5033.400406,12287.418637,-65271.336430
14199.111259,2664.741391,4589.276840,-65424.555529
14199.114558,-26499.372724,6365.771101,-67722.842023
14199.117857,14359.995275,20577.725188,-60827.982541
14199.121156,13323.706956,9326.594869,-74004.825107
14199.124455,-9474.636058,-4145.153275,-91318.583362
14199.127754,-25907.207970,3849.070898,-70787.224015
14199.131053,16136.489536,20577.725188,-58989.353346
14199.134352,10214.842000,4737.318029,-102197.139433
14199.137652,-592.164754,-15248.242405,-124413.908875
14199.140951,10066.800811,-7402.059420,-128550.824564
14199.144250,-11695.253884,-148.041188,-65884.212828
14199.147549,-12139.377449,21169.889941,-11644.651570
14199.150848,-8882.471304,-4589.276840,-65424.555529
14199.154147,-12583.501014,-6809.894666,-104342.206828
14199.157446,-11695.253884,-5033.400406,-93770.088955
14199.160745,2516.700203,4145.153275,-83044.751983
14199.164044,-8586.388927,9326.594869,-69714.690318
14199.167343,1184.329507,5921.647536,-77222.426198
14199.170642,-6217.729913,-1036.288319,-88100.982270
14199.173942,-3552.988522,5773.606348,-75996.673402
14199.177241,1776.494261,4145.153275,-75383.797003
14199.180540,-4293.194464,296.082377,-65577.774629
14199.183839,-19689.478057,1036.288319,-61440.858940
14199.187138,3701.029710,3404.947333,-69867.909418
14199.190437,-16136.489536,-9326.594869,-79980.369991
14199.193736,-5477.523971,15840.407159,-66037.431928
14199.197035,10510.924376,3849.070898,-75537.016103
14199.200334,-16136.489536,-6957.935855,-79061.055394
14199.203633,-21021.848753,5033.400406,-61900.516238
14199.206933,592.164754,25907.207970,-48723.673673
14199.210233,27683.702231,14063.912898,-97140.909146
14199.213534,19245.354492,592.164754,-112462.819106
14199.216834,2664.741391,-8882.471304,-133760.273951
14199.220135,3997.112087,5477.523971,-75077.358804
14199.223435,-8290.306550,28423.908173,-15321.909960
14199.226736,-2516.700203,6661.853478,-55618.533155
14199.230036,-6661.853478,-1036.288319,-95455.499051
14199.233337,-5773.606348,-296.082377,-90092.830565
14199.236638,0.000000,-148.041188,-80593.246390
14199.239938,-1924.535449,7698.141797,-66497.089226
14199.243239,6957.935855,10362.883188,-77375.645298
14199.246539,7550.100608,-1036.288319,-99898.852939
14199.249840,740.205942,3997.112087,-105721.178724
14199.253140,7402.059420,9770.718434,-86875.229473
14199.256441,6069.688724,8882.471304,-60521.544342
14199.259742,-6661.853478,18061.024985,-52094.493864
14199.263042,-3552.988522,9178.553681,-67263.184724
14199.266343,5329.482782,6217.729913,-87488.105872
14199.269643,-1332.370696,-3256.906145,-95455.499051
14199.272944,-14211.954086,12879.583391,-72472.634111
14199.276244,23538.548956,18653.189738,-69408.252119
14199.279545,592.164754,1628.453072,-96681.251848
14199.282845,-11251.130318,-15396.283594,-99285.976541
14199.286146,-38046.585419,6957.935855,-39990.184996
14199.315867,-19541.436869,-3701.029710,-84270.504780
14199.319170,-7254.018232,5921.647536,-65884.212828
14199.322472,-9030.512492,3701.029710,-61747.297139
14199.325775,-7254.018232,5773.606348,-83351.190182
14199.329077,-6661.853478,5181.441594,-81206.122788
14199.332379,2812.782580,-1628.453072,-96834.470947
14199.335682,-10955.047942,-5477.523971,-87334.886772
14199.338984,-3997.112087,8882.471304,-61747.297139
14199.342286,-3108.864956,-2664.741391,-66956.746525
14199.345589,-3997.112087,11547.212695,-56691.066852
14199.348891,148.041188,-1924.535449,-80593.246390
14199.352194,-21317.931130,-1628.453072,-73085.510509
14199.355496,-7846.182985,14656.077652,-51481.617466
14199.358798,3997.112087,31828.855506,-63432.707234
14199.362101,35529.885216,-5329.482782,-138050.408740
14199.365403,-7254.018232,-16136.489536,-137590.751441
14199.368705,888.247130,-3256.906145,-110164.532612
14199.372008,-6513.812290,11103.089130,-26353.685131
14199.375310,-13471.748144,27979.784608,-7048.078582
14199.378613,1480.411884,-3404.947333,-79061.055394
14199.381915,-6809.894666,-740.205942,-107713.027019
14199.385217,-13175.665768,-5181.441594,-96528.032748
14199.388520,3997.112087,10807.006753,-70787.224015
14199.391822,0.000000,10955.047942,-64045.583633
14199.395124,-1924.535449,11251.130318,-74924.139704
14199.398427,4145.153275,5921.647536,-82585.094684
14199.401729,1036.288319,4589.276840,-74158.044206
14199.405031,-6809.894666,15544.324782,-64045.583633
14199.408334,5773.606348,19689.478057,-59295.791545
14199.411636,1332.370696,10362.883188,-74770.920605
14199.414938,-3701.029710,6217.729913,-85496.257577
14199.418241,-148.041188,11251.130318,-86262.353075
14199.421543,11843.295072,12879.583391,-79214.274493
14199.424845,1332.370696,-740.205942,-89173.515967
14199.428148,-14508.036463,10066.800811,-70480.785816
14199.431450,3404.947333,19689.478057,-64964.898230
14199.434752,7698.141797,5181.441594,-90858.926063
14199.438055,4589.276840,-26055.249158,-129623.358262
14199.441357,-11991.336260,-24278.754898,-128550.824564
14199.444659,-10807.006753,7994.224174,-46118.948980
14199.447962,-18357.107362,12879.583391,-1991.848295
14199.451264,-15248.242405,4441.235652,-48110.797274
14199.454567,5329.482782,-12731.542202,-114148.229202
14199.457869,-7698.141797,-6513.812290,-107100.150620
14199.461171,-13471.748144,2664.741391,-90246.049664
14199.464474,5477.523971,17616.901420,-63432.707234
14199.467776,4441.235652,5033.400406,-66956.746525
14199.471078,-9622.677246,3552.988522,-79061.055394
14199.474381,-1480.411884,5921.647536,-73698.386908
14199.477683,-7105.977043,1036.288319,-74158.044206
14199.480985,-5477.523971,-296.082377,-66037.431928
14199.484288,-8586.388927,0.000000,-66343.870127
14199.487590,-3404.947333,444.123565,-79980.369991
14199.490892,-13767.830521,-740.205942,-81665.780087
14199.494195,2960.823768,6217.729913,-80286.808190
14199.497497,-7550.100608,-2960.823768,-89173.515967
14199.500799,-20577.725188,7698.141797,-71553.319513
14199.504101,296.082377,16728.654289,-60061.887043
14199.507402,18357.107362,17172.777854,-86262.353075
14199.510704,19393.395680,-10658.965565,-126099.318971
14199.514006,-7254.018232,-11843.295072,-95149.060852
14199.517308,-15840.407159,24574.837274,-12717.185267
14199.520609,-15100.201217,21762.054695,-7507.735880
14199.523911,-5625.565159,19689.478057,-27732.657028
14199.527213,-2072.576638,-3849.070898,-102043.920334
14199.530515,4885.359217,6809.894666,-106027.616923
14199.533817,-2960.823768,10066.800811,-82585.094684
14199.537118,5181.441594,16728.654289,-62360.173537
14199.540420,-3849.070898,16876.695478,-62513.392637
14199.543722,8290.306550,3404.947333,-79980.369991
14199.547024,-3404.947333,4145.153275,-80440.027290
14199.550325,1332.370696,12731.542202,-71093.662214
14199.553627,9030.512492,10362.883188,-74464.482406
14199.556929,-1924.535449,12731.542202,-72166.195912
14199.560231,-2664.741391,8142.265362,-70634.004916
14199.563533,-1036.288319,4145.153275,-83351.190182
14199.566834,-8586.388927,1776.494261,-79520.712692
14199.570136,6365.771101,17172.777854,-54239.561258
14199.573438,592.164754,2368.659014,-81818.999186
14199.576740,-9918.759623,4441.235652,-81206.122788
14199.580041,-20725.766376,-9622.677246,-73698.386908
14199.583343,-9770.718434,16876.695478,-49642.988270
14199.586645,11695.253884,20133.601622,-67416.403824
14199.589947,8586.388927,-11843.295072,-130236.234660
14199.593249,-444.123565,-5181.441594,-111543.504509
14199.596550,-12879.583391,7402.059420,-43973.881585
14199.599852,-11695.253884,15100.201217,-17313.758255
14199.603154,-12139.377449,1628.453072,-39683.746796
14199.606416,-14211.954086,-3256.906145,-72012.976812
14199.609678,-6809.894666,-9178.553681,-92850.774358
14199.612941,-5773.606348,2368.659014,-76303.111601
14199.616203,-6957.935855,18949.272115,-57150.724151
14199.619465,-2664.741391,4145.153275,-66803.527426
14199.622728,-9030.512492,3849.070898,-81206.122788
14199.625990,-3108.864956,-1332.370696,-80440.027290
14199.629252,-5921.647536,148.041188,-70327.566716
14199.632515,-6069.688724,11843.295072,-66650.308326
14199.635777,-1480.411884,5329.482782,-74617.701505
14199.639039,4293.194464,3997.112087,-79673.931792
14199.642301,-13619.789333,-4441.235652,-95761.937250
14199.645564,0.000000,16432.571912,-64964.898230
14199.648826,12583.501014,10066.800811,-82585.094684
14199.652088,8882.471304,-5625.565159,-106946.931521
14199.655351,-22354.219448,-13175.665768,-88713.858668
14199.658613,-18357.107362,-6217.729913,-70940.443115
14199.661875,-10214.842000,27979.784608,-10418.898773
14199.665138,-8882.471304,17764.942608,-44739.977083
14199.668400,7994.224174,2072.576638,-119510.897688
14199.671662,7550.100608,3849.070898,-125946.099871
14199.674924,13767.830521,14508.036463,-76303.111601
14199.678187,7846.182985,10214.842000,-52554.151163
14199.681449,8882.471304,17172.777854,-63892.364533
14199.684711,-1776.494261,10362.883188,-69101.813920
14199.687974,4737.318029,4885.359217,-82585.094684
14199.691236,-2072.576638,5329.482782,-75077.358804
14199.694498,-148.041188,4885.359217,-81818.999186
14199.697760,740.205942,7994.224174,-81972.218286
14199.701023,-1776.494261,10362.883188,-78141.740796
14199.704285,-1776.494261,4145.153275,-80133.589091
14199.707547,5921.647536,11251.130318,-77222.426198
14199.710815,4589.276840,1184.329507,-79367.493593
14199.714083,-6513.812290,17320.819043,-64352.021832
14199.717351,10214.842000,9622.677246,-74924.139704
14199.720618,7254.018232,888.247130,-85802.695776
14199.723886,-12879.583391,-16580.613101,-80286.808190
14199.727154,-41155.450375,12139.377449,-36006.488406
14199.730422,12139.377449,31384.731941,-26506.904231
14199.733690,5773.606348,-8290.306550,-113688.571903
14199.736957,7105.977043,2960.823768,-122575.279680
14199.740225,11843.295072,-9030.512492,-145864.582819
14199.743493,-5921.647536,4737.318029,-80746.465489
14199.746761,-6217.729913,10066.800811,-42135.252390
14199.750028,-11251.130318,4145.153275,-49796.207370
14199.753296,-10807.006753,-2664.741391,-82125.437386
14199.756564,-12287.418637,-3849.070898,-78907.836294
14199.759832,-11695.253884,444.123565,-69714.690318
14199.763100,-11991.336260,148.041188,-66803.527426
14199.766367,-10510.924376,4589.276840,-67722.842023
14199.769635,-7105.977043,-2664.741391,-74004.825107
14199.772903,3849.070898,2220.617826,-80746.465489
14199.776171,4145.153275,6809.894666,-78141.740796
14199.779438,-148.041188,-5625.565159,-75996.673402
14199.782706,-10955.047942,-1184.329507,-72012.976812
14199.785974,11695.253884,7846.182985,-68948.594820
14199.789242,-19097.313304,-5477.523971,-70787.224015
14199.792510,-30200.402434,5477.523971,-49030.111872
14199.795777,-19097.313304,11547.212695,-21450.673944
14199.799045,-6513.812290,28868.031738,-14709.033562
14199.802313,19689.478057,5181.441594,-109551.656214
14199.805581,12731.542202,-5773.606348,-164710.532070
14199.808848,9326.594869,-1332.370696,-109704.875314
14199.812116,-148.041188,30940.608376,-18539.511052
14199.815350,-1184.329507,22206.178260,-31256.696318
14199.818584,296.082377,9178.553681,-46885.044478
14199.821817,-16728.654289,-4589.276840,-77222.426198
14199.825051,3256.906145,2220.617826,-83197.971083
14199.828285,-5033.400406,3108.864956,-75077.358804
14199.831518,-2072.576638,9474.636058,-72932.291410
14199.834752,2664.741391,6957.935855,-75996.673402
14199.837986,296.082377,6809.894666,-82125.437386
14199.841219,-1184.329507,15988.448347,-66343.870127
14199.844453,-1924.535449,13619.789333,-61287.639840
14199.847687,8734.430116,14952.160028,-70787.224015
14199.850920,8142.265362,2960.823768,-90092.830565
14199.854154,-7402.059420,9030.512492,-80440.027290
14199.857388,9030.512492,12139.377449,-79673.931792
14199.860621,4589.276840,2072.576638,-88100.982270
14199.863855,-3849.070898,-13619.789333,-80286.808190
14199.867089,-48705.550984,2220.617826,-39683.746796
14199.870322,-1036.288319,29016.072926,-24821.494135
14199.873556,1036.288319,17764.942608,-33861.421012
14199.876790,1332.370696,1924.535449,-116293.296596
14199.880024,8882.471304,-7994.224174,-150154.717608
14199.883257,-1480.411884,5625.565159,-92544.336158
14199.886491,-2812.782580,6069.688724,-48570.454573
14199.889725,-9178.553681,7254.018232,-46425.387179
14199.892958,-4145.153275,1924.535449,-63126.269035
14199.896192,-6809.894666,1036.288319,-83044.751983
14199.899426,-2960.823768,-1924.535449,-83044.751983
14199.902659,-11251.130318,-296.082377,-75537.016103
14199.905893,-12139.377449,9770.718434,-69408.252119
14199.909127,-7698.141797,-296.082377,-70940.443115
14199.912360,-6217.729913,1628.453072,-73698.386908
14199.915594,-9918.759623,-2664.741391,-80133.589091
14199.918808,2220.617826,11399.171507,-70787.224015
14199.922013,-9326.594869,-5625.565159,-86415.572174
14199.925219,-444.123565,13619.789333,-68795.375720
14199.928424,8586.388927,19541.436869,-66497.089226
14199.931630,15544.324782,17172.777854,-91778.240660
14199.934835,4737.318029,-11695.253884,-118131.925792
14199.938041,-5033.400406,-3108.864956,-73698.386908
14199.941246,-12879.583391,25018.960840,-11797.870669
14199.944452,-13175.665768,20281.642811,-43820.662486
14199.947657,-9178.553681,18209.066173,-47038.263577
14199.950863,5329.482782,-3552.988522,-116599.734796
14199.954068,9474.636058,6809.894666,-109091.998915
14199.957274,3552.988522,11547.212695,-83044.751983
14199.960479,3849.070898,15544.324782,-65730.993728
14199.963685,4441.235652,10955.047942,-69714.690318
14199.966890,-3108.864956,3108.864956,-83351.190182
14199.970096,-296.082377,8438.347739,-77069.207099
14199.973301,12287.418637,11251.130318,-80133.589091
14199.976506,-148.041188,10807.006753,-82891.532884
14199.979712,-6217.729913,7254.018232,-80133.589091
14199.982917,9474.636058,11103.089130,-75996.673402
14199.986123,-3701.029710,444.123565,-80286.808190
14199.989328,-13027.624579,12731.542202,-79061.055394
14199.992534,17172.777854,16580.613101,-71246.881314
14199.995739,-3256.906145,-8734.430116,-89173.515967
14199.998945,-23538.548956,-13175.665768,-75230.577904
14200.002150,-15988.448347,19097.313304,-33861.421012
14200.005356,5773.606348,22502.260637,-14709.033562
14200.008561,1776.494261,6069.688724,-70174.347617
14200.011767,13175.665768,-1628.453072,-134526.369449
14200.014972,3997.112087,-9622.677246,-128704.043664
14200.018178,-9326.594869,7105.977043,-52094.493864
14200.021360,-10214.842000,6513.812290,-33554.982812
14200.024543,-6069.688724,9178.553681,-43973.881585
14200.027725,-11251.130318,4589.276840,-68642.156621
14200.030907,-5033.400406,-4441.235652,-83657.628382
14200.034090,-13767.830521,740.205942,-74004.825107
14200.037272,-3849.070898,8586.388927,-70174.347617
14200.040454,-7550.100608,3552.988522,-78448.178995
14200.043637,-7550.100608,-2368.659014,-83657.628382
14200.046819,4293.194464,2812.782580,-91931.459760
14200.050001,-10510.924376,-5181.441594,-80286.808190
14200.053184,-11843.295072,7105.977043,-55158.875856
14200.056366,3108.864956,-1776.494261,-66343.870127
14200.059548,-20281.642811,-148.041188,-67876.061123
14200.062731,-25463.084405,8290.306550,-49949.426470
14200.065913,-1776.494261,26203.290347,-42288.471490
14200.069096,27535.661042,12287.418637,-98213.442844
14200.072278,10658.965565,-13175.665768,-150461.155807
14200.075460,888.247130,3997.112087,-93616.869856
14200.078643,-15544.324782,16580.613101,-19152.387450
14200.081825,-2368.659014,24574.837274,-18539.511052
14200.085007,-5329.482782,10214.842000,-44586.757984
14200.088190,-13471.748144,2664.741391,-79980.369991
14200.091372,-1184.329507,1924.535449,-96834.470947
14200.094554,6069.688724,9770.718434,-84270.504780
14200.097737,-592.164754,13471.748144,-80593.246390
14200.100919,592.164754,10066.800811,-79214.274493
14200.104101,9178.553681,11251.130318,-76915.987999
14200.107284,-1184.329507,10658.965565,-74158.044206
14200.110466,5773.606348,8438.347739,-76303.111601
14200.113648,1184.329507,7402.059420,-74464.482406
14200.116831,-14063.912898,7550.100608,-69561.471218
14200.120013,9178.553681,17320.819043,-61134.420740
14200.123177,-296.082377,2072.576638,-70327.566716
14200.126341,-30792.567187,6513.812290,-62360.173537
14200.129505,-3256.906145,13915.871710,-60827.982541
14200.132668,19097.313304,10658.965565,-83351.190182
14200.135832,1332.370696,-15840.407159,-134832.807648
14200.138996,2220.617826,-17024.736666,-149082.183911
14200.142160,2664.741391,-296.082377,-88560.639569
14200.145324,-21317.931130,11695.253884,-12410.747068
14200.148487,-15988.448347,12139.377449,-16700.881856
14200.151651,-8142.265362,-6809.894666,-83657.628382
14200.154815,-11991.336260,-1628.453072,-82738.313784
14200.157979,-11103.089130,-888.247130,-94076.527154
14200.161142,-148.041188,6217.729913,-81972.218286
14200.164306,1480.411884,10066.800811,-72166.195912
14200.167470,1184.329507,4441.235652,-74311.263306
14200.170634,-12879.583391,1924.535449,-73238.729609
14200.173798,-3849.070898,2960.823768,-73391.948708
14200.176961,3108.864956,148.041188,-68948.594820
14200.180125,-19837.519246,-7994.224174,-70174.347617
14200.183289,-8290.306550,4589.276840,-65271.336430
14200.186453,-1184.329507,-3701.029710,-77222.426198
14200.189617,-26055.249158,3256.906145,-73085.510509
14200.192780,-5329.482782,18949.272115,-58070.038748
14200.195944,-3701.029710,23538.548956,-36466.145705
14200.199129,20873.807564,14063.912898,-89633.173266
14200.202314,14656.077652,-12139.377449,-146630.678317
14200.205499,7254.018232,3849.070898,-100664.948437
14200.208684,-16136.489536,13619.789333,-24821.494135
14200.211869,-9030.512492,25907.207970,-10265.679673
14200.215054,-4737.318029,13915.871710,-36312.926605
14200.218239,-12731.542202,6661.853478,-78141.740796
14200.221424,-1924.535449,-2072.576638,-100971.386636
14200.224609,5921.647536,3552.988522,-88100.982270
14200.227794,3849.070898,13027.624579,-70940.443115
14200.230978,9030.512492,9770.718434,-71400.100414
14200.234163,6957.935855,9622.677246,-83351.190182
14200.237348,-4737.318029,4737.318029,-87794.544071
14200.240533,8290.306550,5477.523971,-73238.729609
14200.243718,-1332.370696,20281.642811,-56844.285952
14200.246903,148.041188,9918.759623,-72012.976812
14200.250088,-9770.718434,12731.542202,-70021.128517
14200.253273,13027.624579,8438.347739,-81972.218286
14200.256458,-2368.659014,-6809.894666,-99285.976541
14200.259643,-9622.677246,-5625.565159,-76456.330700
14200.262828,-29312.155303,14804.118840,-36619.364804
14200.266013,3108.864956,22206.178260,-48570.454573
14200.269198,6513.812290,9178.553681,-66343.870127
14200.272382,8290.306550,-1036.288319,-127171.852668
14200.275567,2812.782580,-9622.677246,-132228.082955
14200.278752,-4885.359217,6069.688724,-69408.252119
14200.281937,-7105.977043,9030.512492,-44433.538884
14200.285122,-11547.212695,6661.853478,-51328.398366
14200.288307,-8290.306550,3256.906145,-64505.240932
14200.291492,-13915.871710,-2220.617826,-77682.083497
14200.294677,-8882.471304,148.041188,-79827.150892
14200.297862,-6365.771101,4145.153275,-76762.768900
14200.301066,-3552.988522,3701.029710,-78601.398095
14200.304271,-740.205942,2368.659014,-82431.875585
14200.307475,-10510.924376,-5033.400406,-81359.341888
14200.310680,-2072.576638,1924.535449,-76456.330700
14200.313884,-1924.535449,-2812.782580,-74004.825107
14200.317089,-10955.047942,11399.171507,-59142.572446
14200.320293,444.123565,20725.766376,-77835.302597
14200.323498,33457.308578,8290.306550,-115067.543800
14200.326702,26499.372724,-14211.954086,-134526.369449
14200.329907,-9770.718434,-9918.759623,-114607.886501
14200.333111,-6513.812290,20281.642811,-27579.437928
14200.336316,-21169.889941,25018.960840,-8580.269578
14200.339520,-888.247130,14656.077652,-77528.864398
14200.342725,11843.295072,444.123565,-136058.560445
14200.345929,0.000000,-444.123565,-111696.723608
14200.349134,1480.411884,4737.318029,-94536.184453
14200.352338,1332.370696,19097.313304,-66190.651027
14200.355543,3849.070898,19985.560434,-62206.954438
14200.358747,8438.347739,2516.700203,-80133.589091
14200.361952,-2220.617826,8734.430116,-78601.398095
14200.365156,2220.617826,10510.924376,-78754.617194
14200.368361,8586.388927,11695.253884,-75230.577904
14200.371565,5773.606348,14211.954086,-75230.577904
14200.374769,-3997.112087,9178.553681,-83810.847481
14200.377974,-9326.594869,11843.295072,-80593.246390
14200.381178,19245.354492,8586.388927,-81052.903688
14200.384383,5329.482782,2220.617826,-95455.499051
14200.387587,3108.864956,-10807.006753,-105721.178724
14200.390792,-37602.461854,-2664.741391,-55924.971354
14200.393996,-16728.654289,27979.784608,-15934.786358
14200.397201,8142.265362,5773.606348,-77375.645298
14200.400405,11991.336260,-3701.029710,-133147.397552
14200.403626,-5921.647536,-11103.089130,-138203.627839
14200.406847,3108.864956,740.205942,-108632.341616
14200.410068,3108.864956,5773.606348,-68948.594820
14200.413290,-7402.059420,8142.265362,-50868.741067
14200.416511,-1480.411884,-592.164754,-73238.729609
14200.419732,-11843.295072,-444.123565,-77222.426198
14200.422953,-9622.677246,4885.359217,-79367.493593
14200.426174,-3701.029710,-3849.070898,-78294.959896
14200.429395,-6809.894666,-2368.659014,-76456.330700
14200.432616,-8734.430116,-1628.453072,-80133.589091
14200.435837,-12583.501014,-6513.812290,-79061.055394
14200.439058,-12435.459826,-2368.659014,-79061.055394
14200.442279,11251.130318,5181.441594,-68182.499322
14200.445500,-10362.883188,-2812.782580,-71093.662214
14200.448721,-31828.855506,9178.553681,-49796.207370
14200.451942,-1036.288319,23538.548956,-35700.050207
14200.455163,22650.301825,15544.324782,-78754.617194
14200.458384,12435.459826,11843.295072,-92697.555258
14200.461605,9622.677246,0.000000,-133760.273951
14200.464826,7698.141797,2220.617826,-97140.909146
14200.468047,1036.288319,29016.072926,-30184.162621
14200.471269,-296.082377,10362.883188,-47804.359075
14200.474490,-11547.212695,1332.370696,-75843.454302
14200.477711,-10214.842000,-592.164754,-89939.611465
14200.480932,-740.205942,2812.782580,-76762.768900
14200.484153,1480.411884,7550.100608,-66956.746525
14200.487374,-888.247130,14804.118840,-75383.797003
14200.490595,5329.482782,8586.388927,-95915.156350
14200.493816,7846.182985,4885.359217,-100511.729338
14200.497037,12435.459826,12435.459826,-77375.645298
14200.500258,10214.842000,2072.576638,-79980.369991
14200.503479,-13027.624579,20577.725188,-50868.741067
14200.506714,0.000000,8586.388927,-68335.718422
14200.509949,-12583.501014,-7105.977043,-72932.291410
14200.513184,-34197.514520,4885.359217,-54392.780358
14200.516419,15840.407159,27535.661042,-29111.628924
14200.519654,7698.141797,23094.425390,-60061.887043
14200.522889,4441.235652,-13471.748144,-145711.363720
14200.526124,12435.459826,-10214.842000,-142646.981728
14200.529359,-2220.617826,-444.123565,-53933.123059
14200.532594,-25315.043216,11103.089130,10112.460574
14200.535829,-10214.842000,12287.418637,-24361.836836
14200.539064,-8882.471304,6661.853478,-62206.954438
14200.542299,-16876.695478,-6809.894666,-90552.487864
14200.545534,-11251.130318,3997.112087,-87028.448573
14200.548769,-296.082377,12879.583391,-75843.454302
14200.552004,5477.523971,7105.977043,-82278.656485
14200.555239,5773.606348,592.164754,-90705.706963
14200.558474,-3404.947333,-3256.906145,-96681.251848
14200.561709,-9918.759623,-5033.400406,-79980.369991
14200.564944,-5181.441594,1332.370696,-54545.999458
14200.568179,-296.082377,1184.329507,-53933.123059
14200.571414,-25907.207970,2220.617826,-67722.842023
14200.574649,-17172.777854,7402.059420,-64045.583633
14200.577884,-14063.912898,11547.212695,-32176.010916
14200.581119,5773.606348,32865.143825,-48417.235474
14200.584354,36122.049970,-2368.659014,-142187.324429
14200.587589,3108.864956,-7402.059420,-150767.594006
14200.590824,-13323.706956,6365.771101,-63279.488135
14200.594059,15988.448347,25018.960840,-52860.589362
14200.597294,-6809.894666,19541.436869,-20378.140247
14200.600529,-15840.407159,5033.400406,-56078.190454
14200.603764,-10066.800811,-3849.070898,-93463.650756
14200.606999,-3849.070898,3256.906145,-86875.229473
14200.610246,10066.800811,10510.924376,-73545.167808
14200.613493,10214.842000,6809.894666,-74617.701505
14200.616739,-5329.482782,13471.748144,-80133.589091
14200.619986,4737.318029,10362.883188,-85036.600278
14200.623233,16432.571912,12731.542202,-80133.589091
14200.626479,-3997.112087,14508.036463,-69867.909418
14200.629726,-10510.924376,16432.571912,-66037.431928
14200.632973,10066.800811,21021.848753,-61440.858940
14200.636219,10066.800811,3256.906145,-92697.555258
14200.639466,3701.029710,-15988.448347,-110777.409011
14200.642713,-43820.191766,-5921.647536,-61440.858940
14200.645959,-16432.571912,25611.125593,-10572.117872
14200.649206,6513.812290,6365.771101,-66650.308326
14200.652453,-148.041188,11399.171507,-81972.218286
14200.655699,-7550.100608,-12435.459826,-145098.487321
14200.658946,3849.070898,-3404.947333,-116446.515696
14200.662193,2812.782580,5477.523971,-62973.049936
14200.665439,-11547.212695,14804.118840,-43361.005187
14200.668686,-3108.864956,-5033.400406,-74464.482406
14200.671933,-11103.089130,3108.864956,-80133.589091
14200.675179,-14063.912898,444.123565,-73545.167808
14200.678426,1628.453072,-1776.494261,-71400.100414
14200.681672,-10362.883188,1776.494261,-72166.195912
14200.684919,-21465.972318,-3997.112087,-76915.987999
14200.688166,-740.205942,2516.700203,-77835.302597
14200.691412,1036.288319,-3701.029710,-79214.274493
14200.694659,-14804.118840,7402.059420,-63892.364533
14200.697906,-4737.318029,23094.425390,-61134.420740
14200.701152,17764.942608,25315.043216,-93003.993457
14200.704399,23686.590144,-14359.995275,-136977.875042
14200.707646,-5477.523971,-6069.688724,-91625.021561
14200.710892,-8882.471304,8438.347739,-67569.622924
14200.714149,-14508.036463,24574.837274,-4749.792088
14200.717406,-8290.306550,17764.942608,-36006.488406
14200.720663,-444.123565,-1036.288319,-110777.409011
14200.723919,10807.006753,-888.247130,-110470.970812
14200.727176,1184.329507,-3108.864956,-97907.004644
14200.730433,-4293.194464,14804.118840,-63432.707234
14200.733689,10955.047942,12583.501014,-62666.611736
14200.736946,9326.594869,6217.729913,-83964.066581
14200.740203,-7550.100608,10510.924376,-84117.285680
14200.743460,5033.400406,9622.677246,-79827.150892
14200.746716,11103.089130,13915.871710,-74158.044206
14200.749973,-2220.617826,15248.242405,-64658.460031
14200.753230,-11695.253884,11843.295072,-73085.510509
14200.756486,10807.006753,13027.624579,-85189.819378
14200.759743,6661.853478,-6513.812290,-105721.178724
14200.763000,-9770.718434,-14508.036463,-86262.353075
14200.766257,-34789.679274,-11103.089130,-73851.606007
14200.769513,-17172.777854,20577.725188,-19305.606550
14200.772770,1628.453072,8882.471304,-50715.521968
14200.776027,7846.182985,0.000000,-117519.049393
14200.779283,4145.153275,-10066.800811,-135292.464947
14200.782540,-6365.771101,2960.823768,-73391.948708
14200.785797,0.000000,6957.935855,-71553.319513
14200.789054,296.082377,17468.860231,-51328.398366
14200.792310,148.041188,-2072.576638,-76609.549800
14200.795567,-20429.683999,2368.659014,-85802.695776
14200.798824,-7550.100608,1036.288319,-75843.454302
14200.802080,3849.070898,-148.041188,-69867.909418
14200.805337,-14211.954086,888.247130,-65577.774629
14200.808594,-15988.448347,-5033.400406,-73391.948708
14200.811851,-1332.370696,-4737.318029,-81818.999186
14200.815107,6217.729913,-6365.771101,-78141.740796
14200.818334,-19689.478057,1332.370696,-62206.954438
14200.821560,-24278.754898,4885.359217,-51175.179266
14200.824787,-10066.800811,22058.137072,-19152.387450
14200.828014,21762.054695,19393.395680,-64505.240932
14200.831240,16580.613101,-5181.441594,-137437.532341
14200.834467,1332.370696,3404.947333,-119357.678588
14200.837693,-7105.977043,11399.171507,-44739.977083
14200.840920,-5625.565159,25611.125593,-34167.859211
14200.844146,-1332.370696,18357.107362,-38151.555800
14200.847373,-4885.359217,444.123565,-76303.111601
14200.850599,-10658.965565,-7846.182985,-94995.841752
14200.853826,-6513.812290,10066.800811,-69561.471218
14200.857053,8734.430116,6365.771101,-64811.679131
14200.860279,-5477.523971,9030.512492,-67263.184724
14200.863506,-7846.182985,11399.171507,-74924.139704
14200.866732,15692.365970,11547.212695,-79673.931792
14200.869959,-2368.659014,8438.347739,-72779.072310
14200.873185,4293.194464,20577.725188,-59295.791545
14200.876412,5181.441594,1776.494261,-78294.959896
14200.879638,-13767.830521,-1332.370696,-70174.347617
14200.882865,-20281.642811,9326.594869,-49796.207370
14200.886092,15248.242405,18209.066173,-57303.943250
14200.889318,-1776.494261,-4145.153275,-115067.543800
14200.892545,-592.164754,-16876.695478,-123341.375178
14200.895771,-11399.171507,-296.082377,-58989.353346
14200.898998,-20725.766376,7105.977043,-44586.757984
14200.902224,-16728.654289,7994.224174,-17007.320056
14200.905451,-12287.418637,-5329.482782,-64198.802732
14200.908677,-1332.370696,1184.329507,-96528.032748
14200.911904,592.164754,-1924.535449,-93003.993457
14200.915131,-10807.006753,8586.388927,-68029.280222
14200.918357,-4885.359217,15248.242405,-58682.915147
14200.921595,4441.235652,6809.894666,-64198.802732
14200.924835,-1184.329507,-1924.535449,-77528.864398
14200.928074,-18653.189738,-4589.276840,-81512.560987
14200.931314,4441.235652,5329.482782,-73698.386908
14200.934553,-12879.583391,-6069.688724,-71093.662214
14200.937793,-27831.743419,4885.359217,-54852.437657
14200.941032,-8142.265362,20873.807564,-44586.757984
14200.944272,1332.370696,26351.331535,-80286.808190
14200.947512,31680.814318,-6069.688724,-140195.476134
14200.950751,7402.059420,-13767.830521,-130542.672859
14200.953991,3108.864956,4441.235652,-109858.094413
14200.957230,-19393.395680,19985.560434,-26200.466032
14200.960470,-1776.494261,22946.384202,-25894.027832
14200.963709,5477.523971,1924.535449,-91625.021561
14200.966949,0.000000,-740.205942,-104342.206828
14200.970189,-444.123565,-296.082377,-84883.381178
14200.973428,-444.123565,22798.343014,-63126.269035
14200.976668,14211.954086,19097.313304,-66803.527426
14200.979907,12731.542202,3552.988522,-92237.897959
14200.983147,-4885.359217,9474.636058,-92697.555258
14200.986386,12731.542202,15840.407159,-75996.673402
14200.989626,-1776.494261,5033.400406,-60521.544342
14200.992866,-2664.741391,15988.448347,-58682.915147
14200.996105,6365.771101,10658.965565,-80286.808190
14200.999356,-17320.819043,-6365.771101,-77835.302597
14201.002607,-26499.372724,8882.471304,-46731.825378
14201.005857,20873.807564,20281.642811,-54545.999458
14201.009108,7254.018232,-9030.512492,-131002.330158
14201.012359,-740.205942,-18357.107362,-139582.599736
14201.015609,8882.471304,-14508.036463,-130695.891959
14201.018860,-13175.665768,6957.935855,-37845.117601
14201.022111,-16728.654289,15396.283594,2757.943793
14201.025361,-14063.912898,-6513.812290,-58529.696047
14201.028612,-2516.700203,-4145.153275,-101584.263035
14201.031863,-15248.242405,-5625.565159,-89020.296868
14201.035114,-5921.647536,6513.812290,-71553.319513
14201.038364,-4441.235652,16876.695478,-68948.594820
14201.041615,148.041188,4737.318029,-84883.381178
14201.044866,1184.329507,-5921.647536,-97600.566445
14201.048116,-9178.553681,-7846.182985,-82125.437386
14201.051367,-6365.771101,4589.276840,-81818.999186
14201.054618,10807.006753,5921.647536,-64198.802732
14201.057868,-24426.796086,-5921.647536,-65884.212828
14201.061119,-28719.990550,3552.988522,-53779.903960
14201.064370,-4589.276840,10066.800811,-37691.898502
14201.067621,9918.759623,24574.837274,-73545.167808
14201.070871,12583.501014,17172.777854,-96528.032748
14201.074122,18801.230927,-6365.771101,-159347.863584
14201.077373,-1036.288319,-2220.617826,-108479.122517
14201.080623,4293.194464,28275.866984,-24361.836836
14201.083874,-740.205942,16136.489536,-29264.848024
14201.087125,-15248.242405,3256.906145,-72319.415011
14201.090375,-10658.965565,1776.494261,-84730.162079
14201.093626,3849.070898,-4737.318029,-91165.364262
14201.096877,-3108.864956,8586.388927,-58529.696047
14201.100128,740.205942,16432.571912,-58836.134246
14201.103387,2664.741391,13323.706956,-85649.476676
14201.106646,444.123565,9770.718434,-90399.268764
14201.109905,15100.201217,6809.894666,-86568.791274
14201.113164,-11399.171507,7550.100608,-71706.538613
14201.116423,5773.606348,30792.567187,-47191.482677
14201.119682,15248.242405,3701.029710,-88713.858668
14201.122941,-7254.018232,-13767.830521,-111390.285409
14201.126201,-35085.761651,-7402.059420,-70021.128517
14201.129460,-20281.642811,4885.359217,-45046.415282
14201.132719,-16580.613101,19837.519246,-10265.679673
14201.135978,-296.082377,14952.160028,-69561.471218
14201.139237,6809.894666,-19541.436869,-149235.403010
14201.142496,-9474.636058,-4589.276840,-119970.554987
14201.145755,-1184.329507,12435.459826,-62513.392637
14201.149015,5625.565159,14063.912898,-60981.201641
14201.152274,1184.329507,7402.059420,-62819.830836
14201.155533,-11547.212695,2812.782580,-83504.409282
14201.158792,-1924.535449,-6661.853478,-92391.117059
14201.162051,-12435.459826,-1332.370696,-69101.813920
14201.165310,-13175.665768,-148.041188,-61594.078039
14201.168569,-6809.894666,1184.329507,-61440.858940
14201.171828,-2072.576638,-3701.029710,-79827.150892
14201.175088,-18801.230927,-6217.729913,-81972.218286
14201.178347,-10955.047942,15248.242405,-46731.825378
14201.181606,148.041188,33753.390955,-48570.454573
14201.184865,38934.832549,740.205942,-111543.504509
14201.188124,19097.313304,-5625.565159,-137897.189640
14201.191383,1332.370696,1628.453072,-122268.841481
14201.194642,-8882.471304,14359.995275,-42901.347888
14201.197902,-7698.141797,29608.237680,-11797.870669
14201.201161,1036.288319,8438.347739,-70634.004916
14201.204420,3404.947333,-5477.523971,-110624.189911
14201.207687,-6217.729913,-7105.977043,-106793.712421
14201.210953,-12583.501014,12879.583391,-74924.139704
14201.214220,14359.995275,12435.459826,-64964.898230
14201.217487,6661.853478,5477.523971,-79980.369991
14201.220754,-592.164754,9770.718434,-92391.117059
14201.224021,592.164754,7402.059420,-78754.617194
14201.227287,7994.224174,10510.924376,-71246.881314
14201.230554,-9178.553681,8882.471304,-49030.111872
14201.233821,-3404.947333,25463.084405,-49336.550071
14201.237088,11695.253884,7402.059420,-99285.976541
14201.240354,888.247130,-14359.995275,-127784.729066
14201.243621,6513.812290,-23982.672521,-141421.228931
14201.246888,-16876.695478,148.041188,-66803.527426
14201.250155,-18653.189738,20577.725188,-3524.039291
14201.253422,-6365.771101,15692.365970,-44586.757984
14201.256688,-6069.688724,-13619.789333,-122881.717879
14201.259955,3108.864956,-8734.430116,-120276.993186
14201.263222,-740.205942,-2812.782580,-104801.864126
14201.266489,-444.123565,14063.912898,-62053.735338
14201.269756,5329.482782,11399.171507,-59755.448844
14201.273022,-7846.182985,-4885.359217,-80286.808190
14201.276289,-29016.072926,-592.164754,-78907.836294
14201.279556,-3849.070898,1480.411884,-57916.819649
14201.282823,1036.288319,592.164754,-63892.364533
14201.286090,-16432.571912,7402.059420,-64352.021832
14201.289356,10807.006753,9030.512492,-99592.414740
14201.292623,13175.665768,-15544.324782,-127784.729066
14201.295890,-28127.825796,-2220.617826,-72319.415011
14201.299157,-6957.935855,19097.313304,-8580.269578
14201.302424,-2220.617826,32717.102636,8273.831378
14201.305690,-11251.130318,21614.013506,-32482.449115
14201.308957,11547.212695,-2960.823768,-124260.689776
14201.312230,10955.047942,-9326.594869,-137897.189640
14201.315503,3404.947333,21169.889941,-58836.134246
14201.318776,5329.482782,19393.395680,-39070.870398
14201.322049,1480.411884,14804.118840,-52094.493864
14201.325322,-7402.059420,5033.400406,-77069.207099
14201.328595,1924.535449,-3701.029710,-89633.173266
14201.331868,-5181.441594,5921.647536,-68335.718422
14201.335141,8586.388927,19985.560434,-52860.589362
14201.338414,4145.153275,17320.819043,-77528.864398
14201.341687,-7254.018232,7994.224174,-84423.723880
14201.344960,1924.535449,10955.047942,-98979.538342
14201.348232,26795.455100,3849.070898,-101737.482134
14201.351505,-296.082377,-2072.576638,-80440.027290
14201.354778,-28127.825796,4145.153275,-38457.994000
14201.358051,-9918.759623,18061.024985,-29724.505322
14201.361324,-4145.153275,22946.384202,-27732.657028
14201.364597,1924.535449,-7550.100608,-102350.358533
14201.367870,14063.912898,-13915.871710,-133300.616652
14201.371143,-16728.654289,-2664.741391,-83504.409282
14201.374416,-7550.100608,9770.718434,-31103.477219
14201.377689,-6661.853478,2516.700203,-52554.151163
14201.380962,1184.329507,13767.830521,-60061.887043
14201.384235,-1036.288319,-1184.329507,-94842.622652
14201.387508,-5921.647536,-4885.359217,-93616.869856
14201.390781,-9770.718434,7254.018232,-66037.431928
14201.394054,-13767.830521,-592.164754,-54699.218557
14201.397327,-8438.347739,-3997.112087,-70634.004916
14201.400600,-15988.448347,4737.318029,-72472.634111
14201.403873,12583.501014,1480.411884,-85955.914876
14201.407146,-16136.489536,-10066.800811,-89939.611465
14201.410418,-15100.201217,15692.365970,-46885.044478
14201.413691,1628.453072,22354.219448,-34780.735609
14201.416931,21021.848753,11843.295072,-88100.982270
14201.420170,4145.153275,11695.253884,-100664.948437
14201.423410,18209.066173,2072.576638,-125946.099871
14201.426649,-5033.400406,4293.194464,-83657.628382
14201.429889,-592.164754,27239.578666,-26200.466032
14201.433128,7846.182985,8734.430116,-57457.162350
14201.436368,-7994.224174,-1036.288319,-89786.392366
14201.439607,-11547.212695,296.082377,-98673.100142
14201.442847,3552.988522,2516.700203,-92697.555258
14201.446086,2368.659014,8142.265362,-68642.156621
14201.449326,3256.906145,15840.407159,-59295.791545
14201.452565,1036.288319,14508.036463,-77528.864398
14201.455804,-8290.306550,7254.018232,-80746.465489
14201.459044,-740.205942,11991.336260,-77682.083497
14201.462283,23242.466579,11251.130318,-82585.094684
14201.465523,3404.947333,1184.329507,-88254.201370
14201.468762,-27387.619854,-6513.812290,-57457.162350
14201.472002,-17912.983796,16580.613101,-30797.039020
14201.475241,-5625.565159,26351.331535,-20071.702048
14201.478481,6809.894666,444.123565,-81512.560987
14201.481720,10955.047942,-12879.583391,-131155.549258
14201.484960,-15248.242405,-5477.523971,-103116.454031
14201.488199,-7254.018232,8734.430116,-43820.662486
14201.491439,-9622.677246,1480.411884,-44433.538884
14201.494678,-11103.089130,15544.324782,-53320.246661
14201.497918,-3552.988522,-6365.771101,-86415.572174
14201.501157,-16136.489536,-6809.894666,-84117.285680
14201.504397,-19541.436869,7846.182985,-57150.724151
14201.507636,-8734.430116,-888.247130,-59755.448844
14201.510875,2220.617826,1924.535449,-83044.751983
14201.514115,-444.123565,1036.288319,-100818.167537
14201.517354,2516.700203,9326.594869,-93923.308055
14201.520604,21169.889941,-6809.894666,-106640.493322
14201.523854,-14211.954086,-2812.782580,-70174.347617
14201.527104,-15692.365970,7846.182985,-24668.275036
14201.530354,-5033.400406,30348.443622,-16854.100956
14201.533604,-13471.748144,25018.960840,-18999.168350
14201.536854,7698.141797,1628.453072,-95455.499051
14201.540104,6217.729913,-9770.718434,-134679.588548
14201.543354,8438.347739,14359.995275,-79367.493593
14201.546604,3404.947333,13915.871710,-51481.617466
14201.549854,-1776.494261,12435.459826,-56231.409553
14201.553104,2516.700203,8290.306550,-74924.139704
14201.556354,3849.070898,-3701.029710,-89633.173266
14201.559604,-5033.400406,6365.771101,-72779.072310
14201.562854,7846.182985,17172.777854,-53320.246661
14201.566104,-16876.695478,8882.471304,-63126.269035
14201.569354,-444.123565,13175.665768,-74617.701505
14201.572604,1036.288319,1332.370696,-81206.122788
14201.575854,-4441.235652,19097.313304,-74158.044206
14201.579104,13915.871710,16728.654289,-81206.122788
14201.582354,4441.235652,-3108.864956,-106640.493322
14201.585604,-7105.977043,-27239.578666,-100511.729338
14201.588854,-26351.331535,4885.359217,-22063.550342
14201.592104,-21465.972318,11991.336260,-11338.213370
14201.595354,-12287.418637,24426.796086,-13330.061665
14201.598604,-11695.253884,-3701.029710,-97447.347346
14201.601854,3997.112087,-10955.047942,-134679.588548
14201.605104,-3849.070898,3849.070898,-100664.948437
14201.608354,1332.370696,21910.095883,-51021.960167
14201.611604,-2516.700203,4737.318029,-55618.533155
14201.614854,-14656.077652,3552.988522,-69408.252119
14201.618104,-12435.459826,-2072.576638,-80440.027290
14201.621354,740.205942,-11399.171507,-79214.274493
14201.624612,-10214.842000,7105.977043,-67876.061123
14201.627871,3701.029710,9178.553681,-67722.842023
14201.631130,-12583.501014,-9326.594869,-91165.364262
14201.634388,-25018.960840,5033.400406,-71859.757712
14201.637647,2368.659014,23834.631332,-45812.510780
14201.640906,30644.525999,13471.748144,-84423.723880
14201.644164,296.082377,-1036.288319,-128091.167266
14201.647423,1924.535449,6513.812290,-96221.594549
14201.650682,444.123565,-444.123565,-88560.639569
14201.653940,1332.370696,23982.672521,-31103.477219
14201.657199,888.247130,15100.201217,-46578.606278
14201.660458,-4145.153275,888.247130,-90246.049664
14201.663716,-2812.782580,592.164754,-102503.577632
14201.666975,444.123565,4885.359217,-81206.122788
14201.670234,888.247130,9326.594869,-65118.117330
14201.673492,9918.759623,21465.972318,-61747.297139
14201.676751,-4589.276840,6661.853478,-77988.521696
14201.680010,-3256.906145,4441.235652,-84730.162079
14201.683268,-8586.388927,10658.965565,-67109.965625
14201.686527,-1332.370696,26351.331535,-46885.044478
14201.689786,12287.418637,14359.995275,-67109.965625
14201.693044,-4441.235652,-8734.430116,-111083.847210
14201.696303,-14063.912898,-23834.631332,-100664.948437
14201.699562,-21317.931130,7846.182985,-24974.713235
14201.702820,-8586.388927,18209.066173,-15321.909960
14201.706079,1924.535449,23390.507767,-30184.162621
14201.709338,-10214.842000,-13175.665768,-116140.077497
14201.712596,3849.070898,-7698.141797,-127018.633568
14201.715855,1628.453072,1332.370696,-85955.914876
14201.719114,-1036.288319,18357.107362,-47497.920876
14201.722372,-2812.782580,6809.894666,-66803.527426
14201.725631,-3404.947333,1480.411884,-79214.274493
14201.728897,-15988.448347,-13767.830521,-94689.403553
14201.732163,2516.700203,-3997.112087,-73698.386908
14201.735428,-10658.965565,2220.617826,-61440.858940
14201.738694,-148.041188,2664.741391,-73851.606007
14201.741960,-1036.288319,-8142.265362,-92084.678860
14201.745226,-25463.084405,-6661.853478,-80133.589091
14201.748492,-8438.347739,14804.118840,-35853.269306
14201.751757,17468.860231,34789.679274,-42441.690589
14201.755023,6217.729913,6661.853478,-121196.307784
14201.758289,8142.265362,2664.741391,-138203.627839
14201.761555,9918.759623,-5625.565159,-122268.841481
14201.764821,5921.647536,15840.407159,-48876.892772
14201.768086,-5921.647536,19097.313304,-28498.752526
14201.771352,1628.453072,8290.306550,-65118.117330
14201.774618,-7846.182985,-13175.665768,-106640.493322
14201.777884,-6809.894666,3256.906145,-79673.931792
14201.781149,1924.535449,9622.677246,-72166.195912
14201.784415,5329.482782,20281.642811,-59908.667944
14201.787681,-6809.894666,9030.512492,-73698.386908
14201.790947,4737.318029,8882.471304,-83964.066581
14201.794213,9474.636058,-1332.370696,-93923.308055
14201.797478,-14656.077652,19985.560434,-48876.892772
14201.800744,-12435.459826,19097.313304,-40449.842294
14201.804010,5921.647536,16432.571912,-60061.887043
14201.807276,3997.112087,-8438.347739,-125486.442572
14201.810541,592.164754,-18505.148550,-119357.678588
14201.813807,-20873.807564,740.205942,-42748.128788
14201.817073,-10658.965565,26203.290347,-6588.421283
14201.820339,-13323.706956,15248.242405,-20991.016645
14201.823605,-9622.677246,-3552.988522,-86568.791274
14201.826870,148.041188,-2368.659014,-117059.392094
14201.830136,4589.276840,2220.617826,-92391.117059
14201.833407,-11251.130318,11695.253884,-57303.943250
14201.836678,-2516.700203,13175.665768,-56691.066852
14201.839948,-6809.894666,-3701.029710,-82738.313784
14201.843219,-592.164754,-5329.482782,-89020.296868
14201.846490,-12583.501014,-4885.359217,-69255.033019
14201.849760,-16284.530724,13767.830521,-44280.319784
14201.853031,592.164754,13619.789333,-79214.274493
14201.856302,26943.496289,22798.343014,-92850.774358
14201.859572,19541.436869,-17172.777854,-152759.442301
14201.862843,-6661.853478,2220.617826,-92084.678860
14201.866113,-12731.542202,27535.661042,-6894.859482
14201.869384,-7402.059420,22206.178260,-22216.769442
14201.872655,11251.130318,-4441.235652,-109398.437114
14201.875925,5921.647536,-4441.235652,-110011.313513
14201.879196,-1184.329507,-3849.070898,-107100.150620
14201.882467,-4145.153275,16432.571912,-63126.269035
14201.885737,9622.677246,16876.695478,-52247.712964
14201.889008,4589.276840,9178.553681,-82431.875585
14201.892279,9326.594869,11251.130318,-86262.353075
14201.895549,-1628.453072,4293.194464,-88407.420469
14201.898820,-1776.494261,10658.965565,-71093.662214
14201.902091,-5625.565159,9326.594869,-60981.201641
14201.905361,7254.018232,26943.496289,-55924.971354
14201.908632,6365.771101,2368.659014,-100664.948437
14201.911916,-7254.018232,-10510.924376,-110164.532612
14201.915191,-740.205942,-22946.384202,-112616.038206
14201.918467,-20725.766376,2220.617826,-44739.977083
14201.921743,-11103.089130,17024.736666,-16854.100956
14201.925019,4145.153275,7698.141797,-75996.673402
14201.928294,-7994.224174,-15840.407159,-131615.206556
14201.931570,-888.247130,-444.123565,-94995.841752
14201.934846,-6661.853478,1480.411884,-85343.038477
14201.938122,-2664.741391,20281.642811,-46885.044478
14201.941397,-3997.112087,9326.594869,-58376.476948
14201.944673,-13323.706956,-1776.494261,-90399.268764
14201.947949,-9622.677246,-10658.965565,-101584.263035
14201.951225,14508.036463,2072.576638,-84576.942979
14201.954500,-11695.253884,-6661.853478,-75077.358804
14201.957776,-17616.901420,10955.047942,-55924.971354
14201.961052,12435.459826,9918.759623,-86722.010374
14201.964328,10807.006753,-8290.306550,-116293.296596
14201.967603,-18505.148550,-6957.935855,-88560.639569
14201.970879,-1036.288319,10807.006753,-65271.336430
14201.974155,-20281.642811,27091.537477,-10112.460574
14201.977431,-6513.812290,21465.972318,-45506.072581
14201.980706,18061.024985,-9770.718434,-124720.347074
14201.983982,1332.370696,-1332.370696,-110011.313513
14201.987258,4145.153275,17616.901420,-65577.774629
14201.990534,-148.041188,19393.395680,-56078.190454
14201.993809,2072.576638,12435.459826,-60368.325242
14201.997085,11843.295072,6957.935855,-84117.285680
14202.000361,3108.864956,7698.141797,-91318.583362
14202.003637,-6513.812290,7105.977043,-67569.622924
14202.006912,-1036.288319,17172.777854,-47651.139976
14202.010188,0.000000,7402.059420,-60215.106143
14202.013464,-14656.077652,18949.272115,-58529.696047
14202.016743,17912.983796,10510.924376,-87488.105872
14202.020022,-4589.276840,-7402.059420,-115220.762899
14202.023302,-7846.182985,-19097.313304,-101890.701234
14202.026581,-9326.594869,-7254.018232,-91931.459760
14202.029860,-15396.283594,5033.400406,-23902.179538
14202.033139,-14656.077652,19393.395680,-26047.246932
14202.036419,-6217.729913,-2220.617826,-95455.499051
14202.039698,-2812.782580,-9474.636058,-117672.268493
14202.042977,-6365.771101,6513.812290,-86875.229473
14202.046256,2516.700203,8586.388927,-68029.280222
14202.049536,-8290.306550,7254.018232,-54239.561258
14202.052815,-15248.242405,-1184.329507,-72319.415011
14202.056094,-9770.718434,-7846.182985,-85649.476676
14202.059373,1924.535449,2516.700203,-76456.330700
14202.062653,-5921.647536,-5033.400406,-68948.594820
14202.065932,-29756.278868,-148.041188,-62819.830836
14202.069211,-14656.077652,18949.272115,-54086.342159
14202.072490,17172.777854,19393.395680,-92544.336158
14202.075770,33161.226202,-8734.430116,-135139.245847
14202.079049,-7994.224174,-1776.494261,-103422.892230
14202.082328,-13175.665768,21762.054695,-28192.314326
14202.085607,-1924.535449,20577.725188,-27579.437928
14202.088887,-10807.006753,14952.160028,-39683.746796
14202.092166,5625.565159,3552.988522,-92391.117059
14202.095445,2220.617826,-1036.288319,-102350.358533
14202.098724,-11991.336260,16284.530724,-76456.330700
14202.102004,14508.036463,11547.212695,-56844.285952
14202.105283,16876.695478,18505.148550,-61747.297139
14202.108562,2960.823768,8734.430116,-90246.049664
14202.111841,5329.482782,7402.059420,-95608.718150
14202.115121,444.123565,19097.313304,-74770.920605
14202.118400,10955.047942,15840.407159,-66803.527426
14202.121682,-8290.306550,888.247130,-73238.729609
14202.124964,-29312.155303,-9030.512492,-51481.617466
14202.128245,-29904.320057,11547.212695,-34474.297410
14202.131527,7846.182985,12583.501014,-69408.252119
14202.134809,8142.265362,-13915.871710,-133300.616652
14202.138091,6513.812290,-11843.295072,-124567.127975
14202.141373,-4589.276840,-5477.523971,-109858.094413
14202.144655,-16284.530724,7402.059420,-45352.853482
14202.147937,-6217.729913,11695.253884,-39990.184996
14202.151218,0.000000,4589.276840,-70480.785816
14202.154500,-9474.636058,-6957.935855,-94842.622652
14202.157782,-10807.006753,-1184.329507,-79214.274493
14202.161064,-11547.212695,-3552.988522,-72166.195912
14202.164346,-3849.070898,7402.059420,-61900.516238
14202.167628,-6513.812290,-4885.359217,-79673.931792
14202.170910,-5773.606348,6365.771101,-77375.645298
14202.174191,7254.018232,-2072.576638,-96834.470947
14202.177473,296.082377,-3701.029710,-87488.105872
14202.180755,-2220.617826,-4441.235652,-98673.100142
14202.184037,-12139.377449,18949.272115,-28958.409824
14202.187319,-16728.654289,24426.796086,-22982.864940
14202.190601,3404.947333,12435.459826,-74617.701505
14202.193883,7994.224174,-6957.935855,-121962.403282
14202.197164,7698.141797,8586.388927,-94995.841752
14202.200446,3256.906145,10214.842000,-90399.268764
14202.203728,-5033.400406,17764.942608,-64964.898230
14202.207010,7105.977043,8882.471304,-65118.117330
14202.210292,3404.947333,5921.647536,-78601.398095
14202.213574,1332.370696,15100.201217,-75843.454302
14202.216856,-888.247130,8586.388927,-67722.842023
14202.220137,-296.082377,20429.683999,-60981.201641
14202.223419,10807.006753,9918.759623,-87334.886772
14202.226665,-148.041188,3849.070898,-91778.240660
14202.229910,-14508.036463,6957.935855,-71553.319513
14202.233155,2368.659014,11103.089130,-67876.061123
14202.236400,4145.153275,10510.924376,-83197.971083
14202.239646,5181.441594,-10955.047942,-113995.010102
14202.242891,-8438.347739,-11547.212695,-95608.718150
14202.246136,-16580.613101,12731.542202,-45965.729880
14202.249381,-14952.160028,11695.253884,-39990.184996
14202.252627,-15100.201217,10362.883188,-45046.415282
14202.255872,592.164754,-1480.411884,-87028.448573
14202.259117,-7254.018232,-4885.359217,-96528.032748
14202.262362,-13323.706956,740.205942,-70634.004916
14202.265608,-2368.659014,2664.741391,-55924.971354
14202.268853,-6217.729913,4885.359217,-72472.634111
14202.272098,-1184.329507,-7402.059420,-91165.364262
14202.275343,-10807.006753,3997.112087,-75383.797003
14202.278589,6661.853478,4885.359217,-86415.572174
14202.281834,16136.489536,-1628.453072,-93770.088955
14202.285079,-19393.395680,0.000000,-75077.358804
14202.288324,-8438.347739,27091.537477,-27579.437928
14202.291570,-13027.624579,21317.931130,-23289.303139
14202.294815,-4737.318029,17172.777854,-43207.786087
14202.298060,5625.565159,-2220.617826,-109704.875314
14202.301305,12879.583391,3997.112087,-114454.667401
14202.304551,5181.441594,11991.336260,-86722.010374
14202.307796,-3849.070898,18653.189738,-56997.505051
14202.311041,6069.688724,11103.089130,-62206.954438
14202.314286,10066.800811,9474.636058,-67416.403824
14202.317532,-11547.212695,10362.883188,-72779.072310
14202.320777,-740.205942,7994.224174,-65271.336430
14202.324022,-5181.441594,22650.301825,-64811.679131
14202.327267,15396.283594,13767.830521,-89020.296868
14202.330482,3997.112087,-2368.659014,-96068.375449
14202.333697,-21762.054695,-5773.606348,-85955.914876
14202.336912,-10955.047942,15544.324782,-56997.505051
14202.340127,4737.318029,14359.995275,-65730.993728
14202.343342,7105.977043,-10214.842000,-111237.066310
14202.346557,1924.535449,-15248.242405,-118131.925792
14202.349772,-10658.965565,-3552.988522,-100205.291138
14202.352987,-19245.354492,9030.512492,-39530.527697
14202.356202,-12435.459826,10807.006753,-35240.392908
14202.359417,3552.988522,-6217.729913,-73545.167808
14202.362632,-19541.436869,-8734.430116,-94382.965354
14202.365847,-17468.860231,-9474.636058,-88407.420469
14202.369062,-5329.482782,1184.329507,-64811.679131
14202.372277,-11251.130318,8882.471304,-63585.926334
14202.375492,10955.047942,-5773.606348,-88867.077768
14202.378707,-20133.601622,-9622.677246,-84730.162079
14202.381921,-10362.883188,19985.560434,-58529.696047
14202.385136,8142.265362,29460.196492,-56691.066852
14202.388351,41599.573940,8142.265362,-93770.088955
14202.391566,-6661.853478,-740.205942,-113535.352804
14202.394781,-2368.659014,6957.935855,-79061.055394
14202.397996,-9178.553681,20873.807564,-30030.943522
14202.401211,-9178.553681,11251.130318,-46272.168079
14202.404426,2812.782580,8882.471304,-60827.982541
14202.407641,148.041188,3256.906145,-96528.032748
14202.410856,-7698.141797,5181.441594,-98673.100142
14202.414071,10510.924376,10362.883188,-72779.072310
14202.417286,16728.654289,18209.066173,-68795.375720
14202.420501,592.164754,5033.400406,-84270.504780
14202.423716,14952.160028,7550.100608,-94229.746254
14202.426931,-3256.906145,-888.247130,-90552.487864
14202.430146,-8586.388927,28423.908173,-42594.909689
14202.433336,12287.418637,18801.230927,-50255.864669
14202.436526,-11547.212695,-8142.265362,-100358.510238
14202.439716,-8438.347739,-22502.260637,-123034.936979
14202.442906,-9474.636058,-14063.912898,-96834.470947
14202.446096,-22206.178260,7402.059420,-23442.522239
14202.449286,-1480.411884,22502.260637,-30797.039020
14202.452477,2072.576638,-5921.647536,-111696.723608
14202.455667,-2812.782580,-9622.677246,-124413.908875
14202.458857,-3849.070898,-6809.894666,-114454.667401
14202.462047,8290.306550,14359.995275,-72012.976812
14202.465237,-7846.182985,7994.224174,-53167.027561
14202.468427,-16284.530724,-7105.977043,-72319.415011
14202.471617,-10066.800811,-6809.894666,-80440.027290
14202.474807,-17468.860231,-4441.235652,-61747.297139
14202.477998,-18061.024985,8290.306550,-39070.870398
14202.481188,1628.453072,10658.965565,-67109.965625
14202.484378,17616.901420,-2812.782580,-121655.965082
14202.487568,-6809.894666,-14211.954086,-117825.487592
14202.490758,-6217.729913,26055.249158,-23442.522239
14202.493948,-18801.230927,27387.619854,-13483.280765
14202.497138,-3701.029710,26499.372724,-15475.129060
14202.500328,7698.141797,-4145.153275,-95608.718150
14202.503518,1776.494261,-2220.617826,-117212.611194
14202.506709,7550.100608,10066.800811,-91165.364262
14202.509899,5181.441594,22946.384202,-50255.864669
14202.513089,2072.576638,17468.860231,-53167.027561
14202.516279,19541.436869,15692.365970,-74004.825107
14202.519469,-4293.194464,1628.453072,-94229.746254
14202.522659,-5033.400406,6365.771101,-79980.369991
14202.525849,-5477.523971,8142.265362,-55924.971354
14202.529039,10807.006753,26351.331535,-45506.072581
14202.532230,7698.141797,15988.448347,-66037.431928
14202.535438,-1332.370696,-14952.160028,-113535.352804
14202.538646,-30052.361245,-24278.754898,-96681.251848
14202.541854,-14211.954086,9770.718434,-26660.123330
14202.545063,-4737.318029,10955.047942,-28039.095227
14202.548271,0.000000,20577.725188,-42901.347888
14202.551479,-2664.741391,-6069.688724,-117365.830294
14202.554687,1332.370696,-7994.224174,-121962.403282
14202.557896,-4441.235652,6513.812290,-70021.128517
14202.561104,5033.400406,19985.560434,-40909.499593
14202.564312,-12731.542202,-5773.606348,-70021.128517
14202.567520,-20873.807564,-9622.677246,-74617.701505
14202.570729,-7550.100608,-1480.411884,-72625.853210
14202.573937,-12879.583391,-5477.523971,-58682.915147
14202.577145,-16580.613101,11251.130318,-50868.741067
14202.580353,20133.601622,1628.453072,-104342.206828
14202.583562,7698.141797,-11547.212695,-129163.700963
14202.586770,-7254.018232,-15544.324782,-135292.464947
14202.589978,2516.700203,19985.560434,-44739.977083
14202.593186,-10510.924376,33457.308578,3524.039291
14202.596395,-10807.006753,18357.107362,-45965.729880
14202.599603,12435.459826,-11695.253884,-126712.195369
14202.602811,4885.359217,-1924.535449,-115680.420198
14202.606019,-444.123565,5329.482782,-92544.336158
14202.609228,1184.329507,23390.507767,-58223.257848
14202.612436,7402.059420,10066.800811,-70634.004916
14202.615644,2220.617826,7402.059420,-84423.723880
14202.618852,-2072.576638,5033.400406,-86262.353075
14202.622061,9918.759623,12139.377449,-77069.207099
14202.625269,-1332.370696,9918.759623,-70634.004916
14202.628477,-7402.059420,25167.002028,-60368.325242
14202.631685,8734.430116,16432.571912,-84117.285680
14202.634894,-2072.576638,-4589.276840,-116752.953895
14202.638079,-9918.759623,-26795.455100,-101277.824836
14202.641264,-13471.748144,-10066.800811,-89173.515967
14202.644450,-19393.395680,8586.388927,-24821.494135
14202.647635,-1776.494261,17172.777854,-37538.679402
14202.650820,-10807.006753,-2368.659014,-103422.892230
14202.654006,2664.741391,-3997.112087,-113995.010102
14202.657191,4441.235652,-6217.729913,-106334.055122
14202.660377,148.041188,12287.418637,-70940.443115
14202.663562,-6661.853478,11399.171507,-63279.488135
14202.666747,5329.482782,-8142.265362,-85189.819378
14202.669933,-13323.706956,-6217.729913,-84883.381178
14202.673118,-11547.212695,-6217.729913,-67263.184724
14202.676304,-26499.372724,-9770.718434,-60674.763442
14202.679489,-19245.354492,20577.725188,-24974.713235
14202.682674,10955.047942,27239.578666,-67416.403824
14202.685860,30200.402434,-5921.647536,-142493.762628
14202.689045,2072.576638,-1036.288319,-131155.549258
14202.692231,8290.306550,4737.318029,-123188.156078
14202.695416,-2368.659014,20133.601622,-41522.375992
14202.698601,-11695.253884,18061.024985,-20071.702048
14202.701787,4589.276840,1036.288319,-72166.195912
14202.704972,-2072.576638,-1924.535449,-107406.588820
14202.708157,5921.647536,14359.995275,-85036.600278
14202.711343,11399.171507,12583.501014,-73085.510509
14202.714528,2516.700203,12879.583391,-73085.510509
14202.717714,-5625.565159,10807.006753,-77988.521696
14202.720899,2812.782580,10955.047942,-75996.673402
14202.724084,6809.894666,16876.695478,-68182.499322
14202.727270,-8586.388927,6809.894666,-66956.746525
14202.730455,-19245.354492,-1480.411884,-59142.572446
14202.733641,-21762.054695,15544.324782,-41828.814191
14202.736826,296.082377,10510.924376,-67876.061123
14202.740031,8290.306550,-18061.024985,-129623.358262
14202.743236,-888.247130,-9326.594869,-116293.296596
14202.746441,-2368.659014,3701.029710,-100664.948437
14202.749646,-12139.377449,10214.842000,-51788.055665
14202.752851,-9622.677246,5625.565159,-44433.538884
14202.756056,-10955.047942,-2220.617826,-67416.403824
14202.759262,-13175.665768,-3997.112087,-91931.459760
14202.762467,-8882.471304,-296.082377,-83044.751983
14202.765672,-4293.194464,5625.565159,-66497.089226
14202.768877,-9178.553681,-6217.729913,-70940.443115
14202.772082,-10362.883188,5625.565159,-68948.594820
14202.775287,18061.024985,-3552.988522,-96528.032748
14202.778492,5625.565159,-10214.842000,-98979.538342
14202.781697,-24870.919651,5033.400406,-55924.971354
14202.784902,592.164754,26351.331535,-31563.134518
14202.788107,-13471.748144,26943.496289,-4443.353888
14202.791312,-5329.482782,16136.489536,-59908.667944
14202.794518,13767.830521,-7698.141797,-127478.290867
14202.797723,5921.647536,-740.205942,-106334.055122
14202.800928,7698.141797,5921.647536,-95302.279951
14202.804133,296.082377,19689.478057,-61900.516238
14202.807338,5181.441594,11399.171507,-66956.746525
14202.810543,-5181.441594,10510.924376,-69867.909418
14202.813748,-3552.988522,4885.359217,-72932.291410
14202.816969,14211.954086,19097.313304,-68335.718422
14202.820190,7105.977043,17764.942608,-67722.842023
14202.823411,-10214.842000,5625.565159,-75537.016103
14202.826632,-15100.201217,10214.842000,-68948.594820
14202.829853,10807.006753,12583.501014,-79367.493593
14202.833074,7254.018232,-14211.954086,-122115.622381
14202.836295,3108.864956,-18209.066173,-133760.273951
14202.839516,-4589.276840,-7254.018232,-96068.375449
14202.842737,-11695.253884,13175.665768,-35853.269306
14202.845958,-18801.230927,13471.748144,-38764.432199
14202.849179,-13175.665768,1036.288319,-75077.358804
14202.852400,-3108.864956,-9918.759623,-102350.358533
14202.855621,-15396.283594,-1628.453072,-92084.678860
14202.858842,-7846.182985,4885.359217,-74158.044206
14202.862063,7550.100608,4441.235652,-72166.195912
14202.865284,-19097.313304,-3256.906145,-83657.628382
14202.868505,-4293.194464,3997.112087,-76762.768900
14202.871726,20281.642811,-5181.441594,-94536.184453
14202.874947,4145.153275,-2960.823768,-91165.364262
14202.878168,-19837.519246,6069.688724,-54852.437657
14202.881390,-3701.029710,31088.649564,-13942.938064
14202.884611,-10510.924376,20429.683999,-53013.808462
14202.887832,15692.365970,3552.988522,-122268.841481
14202.891053,8586.388927,-9326.594869,-132074.863855
14202.894274,5773.606348,1628.453072,-106180.836023
14202.897495,8142.265362,9178.553681,-63126.269035
14202.900716,-4293.194464,15840.407159,-49183.330972
14202.903937,-740.205942,9030.512492,-64505.240932
14202.907158,-1036.288319,4885.359217,-77835.302597
14202.910379,-9474.636058,2516.700203,-74158.044206
14202.913600,6217.729913,19689.478057,-65424.555529
14202.916821,14508.036463,16728.654289,-82891.532884
14202.920046,-14656.077652,4293.194464,-92544.336158
14202.923281,-8142.265362,13175.665768,-73238.729609
14202.926517,8882.471304,16728.654289,-65884.212828
14202.929752,2072.576638,-3701.029710,-91931.459760
14202.932987,-1332.370696,-14952.160028,-111849.942708
14202.936222,-2368.659014,-10807.006753,-88254.201370
14202.939457,-19985.560434,12731.542202,-38764.432199
14202.942693,-11547.212695,16728.654289,-45199.634382
14202.945928,-10807.006753,2072.576638,-56231.409553
14202.949163,-9622.677246,-6513.812290,-89479.954166
14202.952398,-10214.842000,4293.194464,-84576.942979
14202.955634,-4145.153275,-1628.453072,-77835.302597
14202.958869,6809.894666,7254.018232,-73545.167808
14202.962104,-17172.777854,-6513.812290,-80286.808190
14202.965339,-16876.695478,-5625.565159,-76762.768900
14202.968574,6513.812290,9030.512492,-72319.415011
14202.971810,25463.084405,10658.965565,-85036.600278
14202.975045,-16728.654289,-4737.318029,-91778.240660
14202.978280,-6513.812290,24130.713709,-39836.965896
14202.981515,-5181.441594,23094.425390,-32329.230016
14202.984750,-7550.100608,15692.365970,-34167.859211
14202.987986,-1924.535449,296.082377,-83964.066581
14202.991221,14952.160028,740.205942,-101890.701234
14202.994456,10214.842000,2960.823768,-98060.223744
14202.997691,3849.070898,19097.313304,-66650.308326
14203.000927,11399.171507,9918.759623,-66037.431928
14203.004162,-2220.617826,8586.388927,-62206.954438
14203.007397,-7846.182985,14656.077652,-61900.516238
14203.010632,-888.247130,9030.512492,-64658.460031
14203.013867,17616.901420,20281.642811,-73085.510509
14203.017103,-2368.659014,7846.182985,-94536.184453
14203.020338,-14359.995275,-10214.842000,-91471.802461
14203.023547,-34049.473332,-3552.988522,-63892.364533
14203.026756,3108.864956,11399.171507,-43361.005187
14203.029965,592.164754,-6957.935855,-80133.589091
14203.033174,-2220.617826,-7105.977043,-112156.380907
14203.036383,3552.988522,3997.112087,-111696.723608
14203.039592,-6513.812290,148.041188,-86568.791274
14203.042801,-9178.553681,3849.070898,-59602.229744
14203.046010,-9326.594869,11103.089130,-58989.353346
14203.049219,-13471.748144,-7698.141797,-84423.723880
14203.052427,-11547.212695,-7994.224174,-80746.465489
14203.055636,-11843.295072,4145.153275,-67263.184724
14203.058845,-888.247130,2812.782580,-71246.881314
14203.062054,-19097.313304,-17320.819043,-94076.527154
14203.065263,-13027.624579,4589.276840,-70174.347617
14203.068472,5181.441594,24426.796086,-59295.791545
14203.071681,26055.249158,22058.137072,-89633.173266
14203.074890,10214.842000,19245.354492,-101431.043935
14203.078099,21169.889941,1036.288319,-123801.032477
14203.081308,1036.288319,7402.059420,-85955.914876
14203.084517,-6661.853478,11399.171507,-46578.606278
14203.087726,-9918.759623,10658.965565,-51328.398366
14203.090935,-5477.523971,16432.571912,-52860.589362
14203.094144,5181.441594,9326.594869,-72625.853210
14203.097353,-444.123565,7550.100608,-92084.678860
14203.100562,5477.523971,13027.624579,-99439.195640
14203.103771,12583.501014,10807.006753,-89173.515967
14203.106980,7402.059420,8882.471304,-91471.802461
14203.110189,-6661.853478,10510.924376,-72779.072310
14203.113398,-17024.736666,13619.789333,-41828.814191
14203.116607,1332.370696,11251.130318,-58223.257848
14203.119816,5477.523971,-7698.141797,-109551.656214
14203.123024,-1924.535449,-18949.272115,-115986.858397
14203.126249,-3404.947333,-14508.036463,-112309.600007
14203.129474,-14211.954086,14656.077652,-62819.830836
14203.132699,-4441.235652,14359.995275,-43820.662486
14203.135924,-12435.459826,-592.164754,-63279.488135
14203.139149,-11251.130318,-5329.482782,-86568.791274
14203.142374,-7254.018232,-592.164754,-86415.572174
14203.145598,-8438.347739,-3256.906145,-81972.218286
14203.148823,888.247130,10362.883188,-70174.347617
14203.152048,-2220.617826,-2960.823768,-85802.695776
14203.155273,-21910.095883,-11695.253884,-87641.324971
14203.158498,2664.741391,10658.965565,-58682.915147
14203.161723,10510.924376,26499.372724,-55924.971354
14203.164947,26795.455100,10066.800811,-92391.117059
14203.168172,6809.894666,4737.318029,-113688.571903
14203.171397,-10214.842000,7550.100608,-78141.740796
14203.174622,-10362.883188,16136.489536,-33095.325514
14203.177847,-1332.370696,8438.347739,-44893.196183
14203.181072,-4589.276840,10955.047942,-57610.381450
14203.184296,-1480.411884,4737.318029,-89633.173266
14203.187521,11399.171507,5921.647536,-99439.195640
14203.190746,4145.153275,9178.553681,-80133.589091
14203.193971,5181.441594,16876.695478,-69101.813920
14203.197196,9474.636058,15396.283594,-66497.089226
14203.200421,8290.306550,3997.112087,-79367.493593
14203.203646,-17616.901420,19245.354492,-63739.145434
14203.206870,3256.906145,25315.043216,-54545.999458
14203.210095,592.164754,2960.823768,-86875.229473
14203.213320,2664.741391,-20429.683999,-123494.594278
14203.216545,-1332.370696,-22058.137072,-125486.442572
14203.219770,-13027.624579,-9622.677246,-76149.892501
14203.222995,-14508.036463,21614.013506,-24515.055936
14203.226219,-7402.059420,13915.871710,-53167.027561
14203.229420,5773.606348,-3552.988522,-104342.206828
14203.232621,-10066.800811,-4589.276840,-111849.942708
14203.235822,-3256.906145,-6365.771101,-106334.055122
14203.239023,-3849.070898,-1628.453072,-81512.560987
14203.242224,8438.347739,6217.729913,-67569.622924
14203.245425,-16876.695478,-6217.729913,-73391.948708
14203.248626,-32124.937883,-5625.565159,-65424.555529
14203.251826,4293.194464,8290.306550,-46578.606278
14203.255027,11843.295072,27831.743419,-49489.769171
14203.258228,21465.972318,4589.276840,-112769.257306
14203.261429,10214.842000,4293.194464,-131155.549258
14203.264630,-7698.141797,9326.594869,-70787.224015
14203.267831,-7846.182985,19985.560434,-16088.005458
14203.271032,-6365.771101,16432.571912,-28805.190725
14203.274233,-3404.947333,7698.141797,-56691.066852
14203.277433,-444.123565,-1776.494261,-91625.021561
14203.280634,6365.771101,3849.070898,-90858.926063
14203.283835,2220.617826,14211.954086,-71093.662214
14203.287036,2368.659014,15840.407159,-70480.785816
14203.290237,6069.688724,17468.860231,-75230.577904
14203.293438,10214.842000,10807.006753,-87947.763170
14203.296639,-9178.553681,10955.047942,-72472.634111
14203.299840,-10807.006753,19985.560434,-45659.291681
14203.303040,5329.482782,7550.100608,-68182.499322
14203.306241,4293.194464,1332.370696,-87028.448573
14203.309442,2664.741391,-22502.260637,-127937.948166
14203.312643,-9474.636058,-15692.365970,-101431.043935
14203.315844,-12879.583391,19837.519246,-37385.460302
14203.319045,-8438.347739,15544.324782,-34321.078310
14203.322246,-16432.571912,3108.864956,-80899.684589
14203.325447,-5477.523971,-1776.494261,-87028.448573
14203.328647,-1036.288319,-1184.329507,-111543.504509
14203.331866,-3552.988522,-3108.864956,-98979.538342
14203.335085,1776.494261,5477.523971,-74004.825107
14203.338304,-148.041188,1332.370696,-74770.920605
14203.341523,-5329.482782,-19541.436869,-92391.117059
14203.344742,-19985.560434,-2516.700203,-61134.420740
14203.347960,-2516.700203,23834.631332,-25894.027832
14203.351179,12731.542202,33605.349767,-60827.982541
14203.354398,12287.418637,12731.542202,-133453.835752
14203.357617,13471.748144,-296.082377,-135598.903146
14203.360836,7550.100608,-1776.494261,-121043.088684
14203.364055,6365.771101,13767.830521,-62206.954438
14203.367274,-1184.329507,13767.830521,-44893.196183
14203.370492,1480.411884,9622.677246,-73545.167808
14203.373711,5625.565159,444.123565,-92544.336158
14203.376930,-7846.182985,8438.347739,-80593.246390
14203.380149,3404.947333,17172.777854,-74158.044206
14203.383368,2220.617826,11547.212695,-69255.033019
14203.386587,14063.912898,19541.436869,-78448.178995
14203.389805,4441.235652,3849.070898,-100971.386636
14203.393024,-18653.189738,148.041188,-71706.538613
14203.396243,-39082.873738,-8438.347739,-55312.094956
14203.399462,-5625.565159,9030.512492,-20531.359346
14203.402681,-3404.947333,-4145.153275,-59755.448844
14203.405900,2516.700203,-5773.606348,-115680.420198
14203.409118,444.123565,2220.617826,-114607.886501
14203.412337,-9770.718434,1184.329507,-95149.060852
14203.415556,-10807.006753,2664.741391,-57763.600549
14203.418775,-13915.871710,13915.871710,-44586.757984
14203.421994,-13471.748144,-1924.535449,-70480.785816
14203.425213,-8438.347739,-6513.812290,-86262.353075
14203.428431,-8882.471304,-4885.359217,-79520.712692
14203.431650,-11103.089130,4145.153275,-71093.662214
14203.434847,6809.894666,7550.100608,-80440.027290
14203.438043,32865.143825,-444.123565,-114761.105600
14203.441240,-16432.571912,-8586.388927,-108019.465218
14203.444436,-8882.471304,28423.908173,-33708.201912
14203.447633,-7994.224174,29312.155303,-9346.365076
14203.450830,-11547.212695,17616.901420,-11184.994271
14203.454026,-4737.318029,1184.329507,-78601.398095
14203.457223,9918.759623,-1776.494261,-115373.981999
14203.460419,-1036.288319,2220.617826,-94689.403553
14203.463616,6513.812290,18505.148550,-57610.381450
14203.466812,13767.830521,19097.313304,-59449.010645
14203.470009,1480.411884,18061.024985,-65118.117330
14203.473206,-2220.617826,15396.283594,-75843.454302
14203.476402,11103.089130,10214.842000,-85802.695776
14203.479599,-14804.118840,11991.336260,-69408.252119
14203.482795,-4589.276840,19541.436869,-50715.521968
14203.485992,592.164754,19393.395680,-46425.387179
14203.489188,-2664.741391,-5477.523971,-103882.549529
14203.492385,1628.453072,-26203.290347,-139889.037935
14203.495582,-2072.576638,-7105.977043,-92697.555258
14203.498778,-13471.748144,25018.960840,-33708.201912
14203.501975,-7994.224174,16728.654289,-36772.583904
14203.505171,-11695.253884,2664.741391,-58836.134246
14203.508368,-14063.912898,-8882.471304,-98060.223744
14203.511546,-2960.823768,296.082377,-94995.841752
14203.514724,-2516.700203,2812.782580,-72472.634111
14203.517901,-12435.459826,2072.576638,-64964.898230
14203.521079,-4589.276840,7550.100608,-64811.679131
14203.524257,13915.871710,-11695.253884,-98213.442844
14203.527435,-11251.130318,-10807.006753,-97907.004644
14203.530613,-6069.688724,9918.759623,-47038.263577
14203.533791,-4145.153275,44412.356520,-8580.269578
14203.536968,-14804.118840,31680.814318,-16241.224558
14203.540146,5921.647536,6513.812290,-81972.218286
14203.543324,10510.924376,-5921.647536,-128704.043664
14203.546502,1036.288319,4145.153275,-94229.746254
14203.549680,9918.759623,13471.748144,-57610.381450
14203.552858,-296.082377,11991.336260,-55312.094956
14203.556036,-2664.741391,11991.336260,-63585.926334
14203.559213,-1924.535449,6365.771101,-73391.948708
14203.562391,-8734.430116,19393.395680,-62819.830836
14203.565569,6661.853478,13619.789333,-70940.443115
14203.568747,-9178.553681,20725.766376,-76149.892501
14203.571925,8586.388927,18357.107362,-59142.572446
14203.575103,11991.336260,10658.965565,-94995.841752
14203.578280,4145.153275,-17912.983796,-140655.133433
14203.581458,-9918.759623,-19985.560434,-107559.807919
14203.584636,-11399.171507,2220.617826,-34627.516510
14203.587814,-7994.224174,22354.219448,-17466.977354
14203.590992,-18505.148550,12435.459826,-37385.460302
14203.594170,-7994.224174,-4145.153275,-82738.313784
14203.597348,-8290.306550,-11103.089130,-109704.875314
14203.600525,-5181.441594,2072.576638,-87641.324971
14203.603703,-1036.288319,0.000000,-64352.021832
14203.606881,-10510.924376,-1184.329507,-63739.145434
14203.610059,-15396.283594,4441.235652,-65271.336430
14203.613260,14508.036463,-12139.377449,-88713.858668
14203.616462,-5625.565159,-8290.306550,-83197.971083
14203.619663,-13915.871710,10066.800811,-49796.207370
14203.622865,2516.700203,41747.615129,-25281.151434
14203.626066,-2516.700203,22650.301825,-76609.549800
14203.629268,5181.441594,8142.265362,-81665.780087
14203.632469,16432.571912,-5329.482782,-121655.965082
14203.635671,-2812.782580,2072.576638,-94689.403553
14203.638872,-1036.288319,13767.830521,-59755.448844
14203.642074,7254.018232,10807.006753,-58070.038748
14203.645276,-888.247130,10362.883188,-62513.392637
14203.648477,-4737.318029,4885.359217,-75690.235202
14203.651679,-6809.894666,15988.448347,-64352.021832
14203.654880,740.205942,17172.777854,-61440.858940
14203.658082,-9178.553681,14952.160028,-76762.768900
14203.661283,12287.418637,15544.324782,-88100.982270
14203.664485,10362.883188,10362.883188,-80133.589091
14203.667686,296.082377,-9622.677246,-121962.403282
14203.670888,10510.924376,-24426.796086,-122881.717879
14203.674089,-13915.871710,-4885.359217,-60061.887043
14203.677291,-11251.130318,24278.754898,-21297.454844
14203.680492,-10955.047942,5033.400406,-53779.903960
14203.683694,-15988.448347,7698.141797,-61440.858940
14203.686895,-1776.494261,-5921.647536,-106487.274222
14203.690097,0.000000,-5181.441594,-110624.189911
14203.693298,-5477.523971,-444.123565,-81818.999186
14203.696500,-10510.924376,-6957.935855,-60674.763442
14203.699701,-20429.683999,8142.265362,-51788.055665
14203.702903,1628.453072,5477.523971,-64352.021832
14203.706104,29756.278868,-1036.288319,-96528.032748
14203.709306,-18357.107362,-6217.729913,-90552.487864
14203.712507,-6217.729913,32272.979071,-29264.848024
14203.715728,-2072.576638,26055.249158,-27579.437928
14203.718949,888.247130,4145.153275,-76303.111601
14203.722171,-4441.235652,1924.535449,-89326.735067
14203.725392,9178.553681,296.082377,-106793.712421
14203.728613,3256.906145,7105.977043,-77222.426198
14203.731834,3552.988522,15100.201217,-56844.285952
14203.735055,5625.565159,10658.965565,-68488.937521
14203.738276,-148.041188,6661.853478,-81512.560987
14203.741497,-11103.089130,4145.153275,-79061.055394
14203.744718,9474.636058,15840.407159,-59602.229744
14203.747940,-4589.276840,9326.594869,-63892.364533
14203.751161,-22058.137072,2368.659014,-59142.572446
14203.754382,-11103.089130,9770.718434,-66650.308326
14203.757603,1036.288319,-1776.494261,-91471.802461
14203.760824,-3404.947333,-12287.418637,-98213.442844
14203.764045,9918.759623,148.041188,-118898.021290
14203.767266,740.205942,8142.265362,-89020.296868
14203.770488,-3701.029710,7254.018232,-50715.521968
14203.773709,-15544.324782,1036.288319,-54086.342159
14203.776930,-21910.095883,1776.494261,-67416.403824
14203.780151,-3108.864956,-2072.576638,-65118.117330
14203.783372,-17764.942608,-8734.430116,-61747.297139
14203.786593,-8734.430116,-444.123565,-72779.072310
14203.789814,-11991.336260,-10807.006753,-91931.459760
14203.793035,-8290.306550,7402.059420,-74770.920605
14203.796257,25611.125593,21169.889941,-91165.364262
14203.799478,35825.967593,17912.983796,-102503.577632
14203.802699,5773.606348,10658.965565,-121043.088684
14203.805920,-444.123565,8734.430116,-75843.454302
14203.809141,-3256.906145,11399.171507,-27885.876127
14203.812362,-14508.036463,9030.512492,-45812.510780
14203.815583,-444.123565,-1332.370696,-91931.459760
14203.818821,-5477.523971,-148.041188,-93157.212557
14203.822059,4145.153275,5033.400406,-94842.622652
14203.825296,2664.741391,16432.571912,-74924.139704
14203.828534,20429.683999,20429.683999,-77222.426198
14203.831772,1036.288319,7550.100608,-88560.639569
14203.835009,148.041188,17764.942608,-91165.364262
14203.838247,8290.306550,16136.489536,-73391.948708
14203.841485,-2960.823768,9474.636058,-72166.195912
14203.844722,-296.082377,-18653.189738,-91012.145162
14203.847960,-20725.766376,-18949.272115,-70174.347617
14203.851198,-24278.754898,3997.112087,-37998.336701
14203.854435,-8586.388927,22206.178260,-30184.162621
14203.857673,-7402.059420,1332.370696,-65730.993728
14203.860910,-5329.482782,-296.082377,-90552.487864
14203.864148,-6809.894666,592.164754,-100818.167537
14203.867386,2072.576638,7698.141797,-82891.532884
14203.870623,-3256.906145,3108.864956,-68182.499322
14203.873861,-3256.906145,-5773.606348,-81359.341888
14203.877099,-15248.242405,-1776.494261,-76609.549800
14203.880336,5329.482782,-148.041188,-70021.128517
14203.883574,14804.118840,740.205942,-82125.437386
14203.886812,-19541.436869,3997.112087,-79520.712692
14203.890049,-2516.700203,29904.320057,-47804.359075
14203.893287,-4441.235652,21169.889941,-57610.381450
14203.896525,-6661.853478,9178.553681,-56078.190454
14203.899762,7105.977043,4441.235652,-93003.993457
14203.903000,10807.006753,-740.205942,-101890.701234
14203.906238,-8290.306550,14063.912898,-83044.751983
14203.909475,13619.789333,15692.365970,-72779.072310
14203.912713,9918.759623,10955.047942,-75537.016103
14203.915951,11399.171507,15692.365970,-79520.712692
14203.919188,-2072.576638,4589.276840,-81665.780087
14203.922431,6957.935855,18653.189738,-67876.061123
14203.925683,-1036.288319,8438.347739,-77988.521696
14203.928935,-15100.201217,-5477.523971,-73391.948708
14203.932186,-28571.949361,-17172.777854,-69408.252119
14203.935438,-22206.178260,-1332.370696,-33095.325514
14203.938690,-14508.036463,-2516.700203,-55618.533155
14203.941942,7550.100608,3849.070898,-105261.521425
14203.945194,9178.553681,4145.153275,-112156.380907
14203.948446,-6957.935855,1332.370696,-74770.920605
14203.951698,-7698.141797,5181.441594,-75843.454302
14203.954949,-7698.141797,12879.583391,-51175.179266
14203.958201,-1628.453072,-1036.288319,-56997.505051
14203.961453,-25759.166782,-12435.459826,-68488.937521
14203.964705,-12583.501014,3701.029710,-66650.308326
14203.967957,6365.771101,-13915.871710,-88254.201370
14203.971209,-17320.819043,-6809.894666,-94076.527154
14203.974461,-12139.377449,4885.359217,-83964.066581
14203.977712,1628.453072,33309.267390,-44127.100685
14203.980964,-7846.182985,28275.866984,-54239.561258
14203.984216,15248.242405,5773.606348,-97907.004644
14203.987468,16136.489536,-6513.812290,-114607.886501
14203.990720,1776.494261,2516.700203,-99132.757441
14203.993972,3404.947333,14508.036463,-71553.319513
14203.997223,12435.459826,10510.924376,-68182.499322
14204.000475,-2072.576638,8734.430116,-73391.948708
14204.003727,5625.565159,10807.006753,-80593.246390
14204.006979,-8142.265362,5181.441594,-68488.937521
14204.010231,-888.247130,24278.754898,-60061.887043
14204.013483,4885.359217,11843.295072,-78141.740796
14204.016735,-11399.171507,-4293.194464,-88560.639569
14204.019986,-32717.102636,888.247130,-67722.842023
14204.023238,0.000000,2960.823768,-50102.645569
14204.026464,-6365.771101,-6661.853478,-76762.768900
14204.029689,-2072.576638,15544.324782,-74464.482406
14204.032914,11399.171507,2072.576638,-103269.673130
14204.036140,-3701.029710,-2960.823768,-90858.926063
14204.039365,-12731.542202,8882.471304,-59908.667944
14204.042590,-10658.965565,9030.512492,-53167.027561
14204.045816,-13915.871710,888.247130,-65118.117330
14204.049041,-26351.331535,-7698.141797,-61900.516238
14204.052266,-5033.400406,3256.906145,-68642.156621
14204.055492,12731.542202,-6957.935855,-95302.279951
14204.058717,-6957.935855,-8290.306550,-99898.852939
14204.061943,-2516.700203,1924.535449,-73545.167808
14204.065168,-3701.029710,39675.038491,-23902.179538
14204.068393,-10362.883188,30348.443622,-26200.466032
14204.071619,6365.771101,8290.306550,-71859.757712
14204.074844,7402.059420,-3849.070898,-115067.543800
14204.078069,3701.029710,5625.565159,-95608.718150
14204.081295,-2072.576638,7254.018232,-67416.403824
14204.084520,296.082377,12139.377449,-57303.943250
14204.087745,6365.771101,16284.530724,-63892.364533
14204.090971,14656.077652,10807.006753,-80746.465489
14204.094196,-13027.624579,4441.235652,-79673.931792
14204.097421,5625.565159,22058.137072,-62053.735338
14204.100647,3849.070898,10214.842000,-84117.285680
14204.103872,-11103.089130,-2220.617826,-88407.420469
14204.107097,-18061.024985,-17616.901420,-93770.088955
14204.110323,-15544.324782,-9030.512492,-55158.875856
14204.113548,-21465.972318,2664.741391,-37385.460302
14204.116773,4293.194464,13619.789333,-71400.100414
14204.119999,4737.318029,444.123565,-110164.532612
14204.123224,-11695.253884,2220.617826,-89786.392366
14204.126450,-4737.318029,6809.894666,-83657.628382
14204.129653,-3552.988522,8882.471304,-68948.594820
14204.132857,-4885.359217,5329.482782,-63739.145434
14204.136060,-6365.771101,-14359.995275,-85189.819378
14204.139264,-17616.901420,-5625.565159,-75537.016103
14204.142467,-6661.853478,8290.306550,-68335.718422
14204.145671,29016.072926,11695.253884,-89939.611465
14204.148874,-6217.729913,-592.164754,-105261.521425
14204.152078,-2368.659014,18209.066173,-71400.100414
14204.155282,-9326.594869,17912.983796,-41675.595091
14204.158485,-5477.523971,17912.983796,-43820.662486
14204.161689,-4589.276840,8734.430116,-51328.398366
14204.164892,5773.606348,444.123565,-97753.785545
14204.168096,6957.935855,3108.864956,-109704.875314
14204.171299,9030.512492,14359.995275,-84117.285680
14204.174503,11843.295072,17468.860231,-69561.471218
14204.177706,3404.947333,15988.448347,-69255.033019
14204.180910,4737.318029,11547.212695,-74617.701505
14204.184114,-12287.418637,4589.276840,-64964.898230
14204.187317,-9178.553681,21762.054695,-45046.415282
14204.190521,11695.253884,11547.212695,-75690.235202
14204.193724,-5477.523971,-24574.837274,-131155.549258
14204.196928,-15248.242405,-20873.807564,-104648.645027
14204.200131,-9326.594869,-2516.700203,-50255.864669
14204.203335,-6365.771101,21614.013506,-49336.550071
14204.206538,-12139.377449,9326.594869,-47038.263577
14204.209742,-9622.677246,-1480.411884,-78448.178995
14204.212946,-8438.347739,148.041188,-96834.470947
14204.216149,888.247130,3404.947333,-78448.178995
14204.219353,-6365.771101,2812.782580,-71400.100414
14204.222556,3256.906145,4589.276840,-71553.319513
14204.225760,-14508.036463,-10362.883188,-85802.695776
14204.228963,-13175.665768,-2220.617826,-68488.937521
14204.232149,-2664.741391,26351.331535,-45659.291681
14204.235335,30200.402434,29904.320057,-75690.235202
14204.238521,11251.130318,18801.230927,-90858.926063
14204.241706,10066.800811,-7105.977043,-128244.386365
14204.244892,5921.647536,2072.576638,-85955.914876
14204.248078,4885.359217,11399.171507,-46118.948980
14204.251264,-6365.771101,12287.418637,-50715.521968
14204.254449,-6217.729913,-1628.453072,-88867.077768
14204.257635,8438.347739,1628.453072,-100818.167537
14204.260821,1924.535449,9770.718434,-90705.706963
14204.264007,-3256.906145,10510.924376,-63126.269035
14204.267193,13175.665768,20429.683999,-58836.134246
14204.270378,0.000000,1332.370696,-94689.403553
14204.273564,-16432.571912,-5477.523971,-77222.426198
14204.276750,-31532.773129,-9178.553681,-69561.471218
14204.279936,-11843.295072,7550.100608,-22523.207641
14204.283121,-9326.594869,-2072.576638,-50715.521968
14204.286307,1628.453072,-740.205942,-106946.931521
14204.289493,7402.059420,8142.265362,-111696.723608
14204.292679,-7254.018232,-296.082377,-71246.881314
14204.295865,-4885.359217,6957.935855,-68642.156621
14204.299050,-9030.512492,12287.418637,-50409.083768
14204.302236,-9622.677246,-7994.224174,-63279.488135
14204.305422,-23390.507767,-11843.295072,-78601.398095
14204.308608,-15100.201217,3108.864956,-66650.308326
14204.311793,12287.418637,3552.988522,-80440.027290
14204.314979,22946.384202,18801.230927,-96068.375449
14204.318165,11103.089130,-3701.029710,-137897.189640
14204.321351,9030.512492,9474.636058,-96374.813648
14204.324537,-15692.365970,24278.754898,-14862.252661
14204.327722,-9474.636058,20577.725188,-9959.241474
14204.330908,6661.853478,-9770.718434,-95608.718150
14204.334080,-6661.853478,-3404.947333,-93923.308055
14204.337251,-2220.617826,-740.205942,-94689.403553
14204.340423,-3552.988522,9030.512492,-67876.061123
14204.343595,8438.347739,24870.919651,-57610.381450
14204.346766,12287.418637,13323.706956,-78754.617194
14204.349938,11843.295072,13323.706956,-79214.274493
14204.353109,-1036.288319,2516.700203,-91318.583362
14204.356281,-17764.942608,8734.430116,-55312.094956
14204.359453,-6217.729913,18061.024985,-40909.499593
14204.362624,-10362.883188,-2220.617826,-82738.313784
14204.365796,-2516.700203,-20873.807564,-122728.498780
14204.368967,5625.565159,-10658.965565,-118285.144891
14204.372139,-8290.306550,11103.089130,-88560.639569
14204.375311,-5181.441594,9622.677246,-63892.364533
14204.378482,-11103.089130,7550.100608,-71093.662214
14204.381654,-10510.924376,2960.823768,-86415.572174
14204.384825,-1332.370696,-7698.141797,-87488.105872
14204.387997,-11251.130318,-14359.995275,-81818.999186
14204.391169,-18357.107362,3701.029710,-59755.448844
14204.394340,12435.459826,296.082377,-74464.482406
14204.397512,7846.182985,-6217.729913,-100358.510238
14204.400683,-16136.489536,3849.070898,-87028.448573
14204.403855,7550.100608,35381.844028,-33401.763713
14204.407027,-6513.812290,30940.608376,-28958.409824
14204.410223,-4441.235652,19689.478057,-36006.488406
14204.413420,9770.718434,-6809.894666,-103269.673130
14204.416616,5921.647536,5181.441594,-107100.150620
14204.419813,11103.089130,12435.459826,-76762.768900
14204.423010,7402.059420,12435.459826,-70940.443115
14204.426206,14508.036463,21317.931130,-72012.976812
14204.429403,10510.924376,8290.306550,-85036.600278
14204.432600,-1332.370696,6513.812290,-73698.386908
14204.435796,-21021.848753,10955.047942,-51941.274764
14204.438993,-8290.306550,21614.013506,-41062.718693
14204.442189,-2812.782580,19393.395680,-31563.134518
14204.445386,-9474.636058,-6809.894666,-95915.156350
14204.448583,3404.947333,-27683.702231,-152606.223202
14204.451779,3552.988522,-7994.224174,-118898.021290
14204.454976,-16284.530724,27831.743419,-35546.831107
14204.458173,-7254.018232,10955.047942,-39070.870398
14204.461369,-17616.901420,6513.812290,-58223.257848
14204.464566,-14508.036463,148.041188,-85802.695776
14204.467762,-10214.842000,-8586.388927,-83964.066581
14204.470959,-16432.571912,-4589.276840,-65424.555529
14204.474156,-7994.224174,8734.430116,-58529.696047
14204.477352,14359.995275,-4441.235652,-94382.965354
14204.480549,4737.318029,-11251.130318,-109704.875314
14204.483746,-7254.018232,-4145.153275,-120276.993186
14204.486942,5329.482782,29164.114115,-44280.319784
14204.490139,-12879.583391,35677.926404,-6894.859482
14204.493335,888.247130,18357.107362,-54699.218557
14204.496532,7846.182985,-14656.077652,-132074.863855
14204.499729,-1184.329507,148.041188,-107100.150620
14204.502925,3997.112087,6513.812290,-90552.487864
14204.506122,296.082377,15396.283594,-52247.712964
14204.509318,2812.782580,26943.496289,-59295.791545
14204.512500,7846.182985,5625.565159,-86875.229473
14204.515682,6661.853478,6069.688724,-86109.133975
14204.518863,-16284.530724,9178.553681,-68948.594820
14204.522045,-26055.249158,9474.636058,-50562.302868
14204.525226,-6513.812290,20577.725188,-37385.460302
14204.528408,-6661.853478,-1184.329507,-85189.819378
14204.531590,-1924.535449,-23982.672521,-135292.464947
14204.534771,1036.288319,-9918.759623,-115220.762899
14204.537953,-3256.906145,10510.924376,-91931.459760
14204.541134,-7105.977043,15692.365970,-48264.016374
14204.544316,-6217.729913,10510.924376,-60827.982541
14204.547497,-11991.336260,2664.741391,-92391.117059
14204.550679,-12287.418637,-11399.171507,-94229.746254
14204.553861,-9474.636058,-6217.729913,-72625.853210
14204.557042,-4441.235652,5181.441594,-60674.763442
14204.560224,1036.288319,13323.706956,-61287.639840
14204.563405,17764.942608,10066.800811,-104648.645027
14204.566587,4737.318029,-3552.988522,-120123.774086
14204.569769,10214.842000,14804.118840,-67109.965625
14204.572950,-14508.036463,27831.743419,-17773.415554
14204.576132,-2368.659014,21614.013506,-33708.201912
14204.579313,-5477.523971,1480.411884,-54392.780358
14204.582495,-6069.688724,-4589.276840,-98060.223744
14204.585677,1628.453072,2812.782580,-88713.858668
14204.588858,1924.535449,14952.160028,-65271.336430
14204.592040,12435.459826,26055.249158,-66497.089226
14204.595221,7254.018232,9326.594869,-81665.780087
14204.598403,9622.677246,18209.066173,-87181.667672
14204.601584,6365.771101,9770.718434,-94076.527154
14204.604766,-9770.718434,-2220.617826,-69561.471218
14204.607948,-41155.450375,3404.947333,-39836.965896
14204.611129,-10807.006753,4737.318029,-32635.668215
14204.614299,-7994.224174,-10807.006753,-86875.229473
14204.617469,-6217.729913,2368.659014,-92850.774358
14204.620638,5329.482782,3849.070898,-127325.071768
14204.623808,1628.453072,1184.329507,-96221.594549
14204.626978,2812.782580,14804.118840,-65118.117330
14204.630147,-5625.565159,12879.583391,-61440.858940
14204.633317,-12879.583391,-12435.459826,-65424.555529
14204.636487,-1924.535449,-4589.276840,-81359.341888
14204.639656,-15100.201217,-14804.118840,-84883.381178
14204.642826,-18653.189738,3256.906145,-50255.864669
14204.645996,-6957.935855,23242.466579,-43361.005187
14204.649165,34641.638086,22502.260637,-93616.869856
14204.652335,15988.448347,19393.395680,-113382.133704
14204.655505,13323.706956,-12435.459826,-146324.240118
14204.658674,3701.029710,5625.565159,-81818.999186
14204.661844,11103.089130,17912.983796,-32329.230016
14204.665014,-6513.812290,14952.160028,-47344.701776
14204.668183,-8586.388927,-5181.441594,-89173.515967
14204.671353,-1776.494261,3552.988522,-96528.032748
14204.674523,-2664.741391,11547.212695,-84576.942979
14204.677692,6957.935855,19097.313304,-54239.561258
14204.680862,-15840.407159,19689.478057,-64505.240932
14204.684032,11695.253884,15692.365970,-93616.869856
14204.687201,12583.501014,-2812.782580,-112156.380907
14204.690371,-3404.947333,-18801.230927,-127784.729066
14204.693541,-7550.100608,-19541.436869,-100664.948437
14204.696710,-6069.688724,0.000000,-44433.538884
14204.699880,-18801.230927,23982.672521,-25127.932334
14204.703050,-16432.571912,1184.329507,-72012.976812
14204.706219,-5033.400406,-9622.677246,-95915.156350
14204.709389,-15248.242405,3552.988522,-80746.465489
14204.712559,-14359.995275,-592.164754,-72779.072310
14204.715756,-3552.988522,-148.041188,-63279.488135
14204.718954,-8142.265362,-6809.894666,-80746.465489
14204.722152,10658.965565,5033.400406,-87947.763170
14204.725350,17616.901420,-2368.659014,-101737.482134
14204.728547,2516.700203,-1776.494261,-117825.487592
14204.731745,3849.070898,19393.395680,-62973.049936
14204.734943,-13619.789333,22058.137072,-16547.662757
14204.738140,-10807.006753,19393.395680,-32942.106414
14204.741338,8438.347739,-6513.812290,-113075.695505
14204.744536,2072.576638,4145.153275,-121655.965082
14204.747734,-4589.276840,-5625.565159,-96221.594549
14204.750931,7402.059420,19393.395680,-59908.667944
14204.754129,12879.583391,23686.590144,-62666.611736
14204.757327,6513.812290,0.000000,-94842.622652
14204.760525,9770.718434,17320.819043,-80286.808190
14204.763722,6365.771101,7402.059420,-77375.645298
14204.766920,-5477.523971,-3404.947333,-82278.656485
14204.770118,-23242.466579,-11103.089130,-49949.426470
14204.773316,-21762.054695,-10807.006753,-24821.494135
14204.776513,-21021.848753,296.082377,-46425.387179
14204.779711,5773.606348,-1924.535449,-112462.819106
14204.782909,-888.247130,3108.864956,-119970.554987
14204.786107,-5329.482782,-4885.359217,-99132.757441
14204.789304,-6365.771101,14359.995275,-64811.679131
14204.792502,-6957.935855,6809.894666,-58070.038748
14204.795700,-9474.636058,-9030.512492,-68795.375720
14204.798898,-8438.347739,-4293.194464,-74464.482406
14204.802095,-4589.276840,-14656.077652,-79827.150892
14204.805293,-8882.471304,-1332.370696,-72932.291410
14204.808491,-17616.901420,10658.965565,-49030.111872
14204.811689,-888.247130,35677.926404,-38304.774900
14204.814886,2664.741391,24278.754898,-81359.341888
14204.818108,11843.295072,-1184.329507,-124107.470676
14204.821329,3552.988522,444.123565,-106487.274222
14204.824551,6513.812290,17172.777854,-89020.296868
14204.827772,7105.977043,15692.365970,-63739.145434
14204.830994,6365.771101,12139.377449,-75077.358804
14204.834215,11251.130318,13175.665768,-91778.240660
14204.837437,-3108.864956,-1924.535449,-87334.886772
14204.840658,1776.494261,17912.983796,-50562.302868
14204.843880,-2072.576638,8734.430116,-62513.392637
14204.847101,-30200.402434,-2664.741391,-53473.465760
14204.850323,-34345.555709,13175.665768,-47191.482677
14204.853544,6809.894666,3997.112087,-72319.415011
14204.856766,4441.235652,-18357.107362,-123954.251576
14204.859987,9770.718434,-3256.906145,-122881.717879
14204.863209,5625.565159,10066.800811,-108479.122517
14204.866431,-2220.617826,10362.883188,-61134.420740
14204.869652,4441.235652,18801.230927,-56844.285952
14204.872874,-13323.706956,888.247130,-78294.959896
14204.876095,-24574.837274,-14952.160028,-89173.515967
14204.879317,-4885.359217,3552.988522,-69867.909418
14204.882538,3404.947333,-12435.459826,-74924.139704
14204.885760,-25167.002028,-6957.935855,-71400.100414
14204.888981,-8438.347739,14952.160028,-53167.027561
14204.892203,13175.665768,37010.297100,-52094.493864
14204.895424,13471.748144,21465.972318,-104955.083226
14204.898646,22650.301825,2368.659014,-121196.307784
14204.901867,15544.324782,-4737.318029,-132228.082955
14204.905089,6957.935855,10066.800811,-70787.224015
14204.908310,3108.864956,17616.901420,-38764.432199
14204.911532,-2664.741391,3997.112087,-66956.746525
14204.914753,0.000000,8734.430116,-86262.353075
14204.917975,-9622.677246,8290.306550,-82278.656485
14204.921195,9030.512492,16136.489536,-63739.145434
14204.924399,1924.535449,7550.100608,-78907.836294
14204.927603,-19541.436869,444.123565,-77069.207099
14204.930807,-16136.489536,12139.377449,-63585.926334
14204.934010,444.123565,5329.482782,-69867.909418
14204.937214,-1480.411884,-8882.471304,-70174.347617
14204.940418,3404.947333,-3552.988522,-110011.313513
14204.943622,-2664.741391,6809.894666,-100205.291138
14204.946826,-7994.224174,2812.782580,-54852.437657
14204.950030,-13323.706956,11399.171507,-43054.566988
14204.953234,-11843.295072,3404.947333,-66497.089226
14204.956438,-14359.995275,-12287.418637,-72166.195912
14204.959642,-18949.272115,-4145.153275,-76915.987999
14204.962846,5181.441594,-9178.553681,-85649.476676
