#time,accel_x,accel_y,accel_z
4931.124251,-2368.659014,592.164754,-76456.330700
4931.126808,-4441.235652,5625.565159,-76915.987999
4931.129366,444.123565,2220.617826,-77682.083497
4931.131923,-3997.112087,2516.700203,-77835.302597
4931.134480,-5477.523971,5329.482782,-76609.549800
4931.137038,-888.247130,888.247130,-75537.016103
4931.139595,-4441.235652,4145.153275,-74311.263306
4931.142153,-1184.329507,4293.194464,-75077.358804
4931.144710,-4589.276840,2368.659014,-77375.645298
4931.147267,-2516.700203,3552.988522,-78601.398095
4931.149825,-444.123565,1480.411884,-76762.768900
4931.152382,-6513.812290,5921.647536,-72166.195912
4931.154939,-1184.329507,4589.276840,-72472.634111
4931.157497,-2812.782580,2812.782580,-75537.016103
4931.160054,-2368.659014,6513.812290,-75077.358804
4931.162612,-1776.494261,3849.070898,-73851.606007
4931.165169,-6365.771101,7254.018232,-72932.291410
4931.167726,2960.823768,3849.070898,-74311.263306
4931.170284,1332.370696,2516.700203,-73698.386908
4931.172841,-3701.029710,3404.947333,-72779.072310
4931.175398,1184.329507,2072.576638,-73391.948708
4931.177956,9918.759623,3404.947333,-75690.235202
4931.180513,-6069.688724,2664.741391,-63892.364533
4931.183071,10510.924376,-5181.441594,-66650.308326
4931.185628,-20725.766376,9326.594869,-63432.707234
4931.188185,10807.006753,3701.029710,-73545.167808
4931.190743,-13027.624579,10955.047942,-70634.004916
4931.193317,7105.977043,9030.512492,-76915.987999
4931.195867,7846.182985,-5329.482782,-81052.903688
4931.198416,-13027.624579,6809.894666,-74158.044206
4931.200965,-5921.647536,-1628.453072,-78754.617194
4931.203514,-10510.924376,3108.864956,-80593.246390
4931.206064,-3701.029710,14656.077652,-70021.128517
4931.208613,888.247130,7846.182985,-73545.167808
4931.211162,-7994.224174,8290.306550,-74770.920605
4931.213711,-14063.912898,8586.388927,-70787.224015
4931.216261,-4589.276840,-2960.823768,-74617.701505
4931.218810,1480.411884,4441.235652,-74004.825107
4931.221359,1184.329507,9178.553681,-74464.482406
4931.223908,-9918.759623,10066.800811,-76456.330700
4931.226458,-8882.471304,6217.729913,-77682.083497
4931.229007,-5033.400406,5477.523971,-74311.263306
4931.231556,-888.247130,6809.894666,-70174.347617
4931.234105,-148.041188,2220.617826,-75843.454302
4931.236655,-6661.853478,5477.523971,-77375.645298
4931.239204,-5921.647536,4737.318029,-76762.768900
4931.241753,1480.411884,2220.617826,-76762.768900
4931.244302,-7698.141797,5921.647536,-74617.701505
4931.246851,-1776.494261,12879.583391,-73698.386908
4931.249401,-15544.324782,12731.542202,-68795.375720
4931.251950,-2812.782580,11103.089130,-70480.785816
4931.254499,-296.082377,8438.347739,-72166.195912
4931.257048,-11103.089130,11103.089130,-73545.167808
4931.259598,2812.782580,4589.276840,-75690.235202
4931.262147,-11251.130318,-3404.947333,-77222.426198
4931.264696,-11991.336260,6365.771101,-74004.825107
4931.267245,2516.700203,6217.729913,-74924.139704
4931.269795,-8734.430116,16136.489536,-74617.701505
4931.272344,1184.329507,6809.894666,-76303.111601
4931.274893,296.082377,3404.947333,-77222.426198
4931.277442,-16728.654289,11547.212695,-72319.415011
4931.279992,10658.965565,-14211.954086,-82585.094684
4931.282541,-7698.141797,12287.418637,-72012.976812
4931.285090,-9622.677246,6661.853478,-73851.606007
4931.287639,17764.942608,-7846.182985,-85189.819378
4931.290189,-19393.395680,22354.219448,-59449.010645
4931.292738,13915.871710,-13027.624579,-80133.589091
4931.295284,-8290.306550,6661.853478,-71400.100414
4931.297829,-1776.494261,3849.070898,-69408.252119
4931.300375,10214.842000,-13175.665768,-87488.105872
4931.302921,-10955.047942,12139.377449,-73391.948708
4931.305467,296.082377,3108.864956,-75537.016103
4931.308013,-4293.194464,2072.576638,-76762.768900
4931.310559,-1036.288319,4885.359217,-71859.757712
4931.313105,3552.988522,2220.617826,-71400.100414
4931.315650,-2960.823768,-4885.359217,-77375.645298
4931.318196,-2812.782580,-1184.329507,-79673.931792
4931.320742,-5921.647536,3849.070898,-72625.853210
4931.323288,2812.782580,5181.441594,-75383.797003
4931.325834,1184.329507,3849.070898,-75996.673402
4931.328380,-5625.565159,2220.617826,-75996.673402
4931.330925,-3256.906145,444.123565,-76915.987999
4931.333471,-1480.411884,-1776.494261,-76762.768900
4931.336017,-2812.782580,6809.894666,-74770.920605
4931.338563,5477.523971,4145.153275,-76915.987999
4931.341109,-5921.647536,3701.029710,-73851.606007
4931.343655,592.164754,2220.617826,-73085.510509
4931.346200,7402.059420,-5625.565159,-81052.903688
4931.348746,2368.659014,-1480.411884,-81665.780087
4931.351292,1924.535449,-2664.741391,-77682.083497
4931.353838,-5181.441594,-1628.453072,-75230.577904
4931.356384,-1332.370696,4293.194464,-75996.673402
4931.358930,1924.535449,1184.329507,-76609.549800
4931.361475,-2516.700203,10214.842000,-67722.842023
4931.364021,-740.205942,4293.194464,-70480.785816
4931.366567,-1036.288319,-2220.617826,-76609.549800
4931.369113,-1184.329507,2812.782580,-75843.454302
4931.371659,4737.318029,-8882.471304,-78448.178995
4931.374205,-4589.276840,9326.594869,-71553.319513
4931.376751,-888.247130,-148.041188,-69408.252119
4931.379296,20281.642811,-12139.377449,-86262.353075
4931.381842,-21614.013506,25315.043216,-64811.679131
4931.384388,-7105.977043,4441.235652,-73698.386908
4931.386934,12435.459826,-5181.441594,-84423.723880
4931.389480,-26203.290347,27387.619854,-61900.516238
4931.392026,14804.118840,-9622.677246,-86875.229473
4931.394571,-11843.295072,6365.771101,-73698.386908
4931.397113,-9474.636058,11103.089130,-69714.690318
4931.399654,-5033.400406,3849.070898,-78448.178995
4931.402195,-3108.864956,10066.800811,-74311.263306
4931.404736,-8290.306550,12879.583391,-67416.403824
4931.407277,2072.576638,-888.247130,-74311.263306
4931.409819,-6809.894666,7846.182985,-71706.538613
4931.412360,-15100.201217,12287.418637,-68335.718422
4931.414901,6069.688724,4145.153275,-75996.673402
4931.417442,1036.288319,3552.988522,-79214.274493
4931.419983,-13027.624579,15544.324782,-69714.690318
4931.422525,-1480.411884,4293.194464,-76149.892501
4931.425066,-6661.853478,2664.741391,-74464.482406
4931.427607,1036.288319,6809.894666,-71859.757712
4931.430148,-5181.441594,6661.853478,-72625.853210
4931.432689,-3849.070898,7254.018232,-75383.797003
4931.435231,-6365.771101,1924.535449,-77375.645298
4931.437772,-8290.306550,4441.235652,-75996.673402
4931.440313,-4145.153275,7550.100608,-73085.510509
4931.442854,-8882.471304,8142.265362,-72932.291410
4931.445395,-8438.347739,10955.047942,-71553.319513
4931.447937,-1184.329507,9030.512492,-75843.454302
4931.450478,-1184.329507,8882.471304,-77375.645298
4931.453019,-4293.194464,4589.276840,-76303.111601
4931.455560,-4293.194464,-1480.411884,-76762.768900
4931.458101,-6069.688724,3256.906145,-75690.235202
4931.460643,-9326.594869,6513.812290,-71706.538613
4931.463184,-1036.288319,12287.418637,-72319.415011
4931.465725,-5033.400406,9178.553681,-73391.948708
4931.468266,0.000000,6957.935855,-76303.111601
4931.470807,-22206.178260,8290.306550,-71553.319513
4931.473349,10955.047942,-4737.318029,-78294.959896
4931.475890,-15248.242405,13323.706956,-65118.117330
4931.478431,6513.812290,-4145.153275,-78601.398095
4931.480972,14508.036463,8734.430116,-73391.948708
4931.483513,-22354.219448,11251.130318,-57763.600549
4931.486055,6809.894666,-8438.347739,-80133.589091
4931.488596,1628.453072,5773.606348,-75077.358804
4931.491137,-7254.018232,7105.977043,-69408.252119
4931.493678,11251.130318,-13027.624579,-85955.914876
4931.496219,-14211.954086,6513.812290,-75537.016103
4931.498758,-2072.576638,3701.029710,-77988.521696
4931.501297,296.082377,0.000000,-76762.768900
4931.503836,-6069.688724,5773.606348,-74464.482406
4931.506375,5773.606348,-148.041188,-75537.016103
4931.508914,2664.741391,-3108.864956,-76149.892501
4931.511453,-7846.182985,7105.977043,-70787.224015
4931.513992,-4589.276840,3701.029710,-72166.195912
4931.516531,-592.164754,3997.112087,-77222.426198
4931.519070,-3552.988522,4737.318029,-75690.235202
4931.521609,-592.164754,592.164754,-74924.139704
4931.524148,-7846.182985,148.041188,-76303.111601
4931.526687,-740.205942,5033.400406,-74770.920605
4931.529225,-1776.494261,5921.647536,-74158.044206
4931.531764,1628.453072,2664.741391,-76609.549800
4931.534303,888.247130,2516.700203,-77069.207099
4931.536842,888.247130,3108.864956,-74311.263306
4931.539381,-148.041188,-1924.535449,-71859.757712
4931.541920,2368.659014,-5181.441594,-74158.044206
4931.544459,5181.441594,-5033.400406,-74770.920605
4931.546998,-4885.359217,2812.782580,-75690.235202
4931.549537,-7994.224174,8438.347739,-74924.139704
4931.552076,4293.194464,1332.370696,-80286.808190
4931.554615,-444.123565,4145.153275,-74617.701505
4931.557154,740.205942,-3997.112087,-74158.044206
4931.559693,6957.935855,-3108.864956,-73391.948708
4931.562231,-17024.736666,4885.359217,-70174.347617
4931.564770,17320.819043,-3256.906145,-79520.712692
4931.567309,-13323.706956,10955.047942,-74311.263306
4931.569848,5477.523971,-4885.359217,-85036.600278
4931.572387,-2516.700203,11695.253884,-74464.482406
4931.574926,-33309.267390,17320.819043,-64352.021832
4931.577465,28423.908173,-13619.789333,-88713.858668
4931.580004,-21465.972318,24870.919651,-62206.954438
4931.582543,1776.494261,3404.947333,-75996.673402
4931.585082,-2072.576638,-2072.576638,-80746.465489
4931.587621,-20725.766376,15248.242405,-67416.403824
4931.590160,-12287.418637,12139.377449,-71706.538613
4931.592699,2220.617826,2368.659014,-78141.740796
4931.595238,-3701.029710,4145.153275,-78448.178995
4931.597776,-2220.617826,7846.182985,-72625.853210
4931.600315,-6365.771101,592.164754,-79827.150892
4931.602853,-12139.377449,10066.800811,-74311.263306
4931.605391,-148.041188,4293.194464,-74311.263306
4931.607929,-888.247130,3997.112087,-78601.398095
4931.610468,-3849.070898,11103.089130,-71246.881314
4931.613006,-8586.388927,5477.523971,-74924.139704
4931.615544,-7846.182985,4589.276840,-77069.207099
4931.618082,1628.453072,3701.029710,-76915.987999
4931.620620,-9622.677246,7550.100608,-70787.224015
4931.623159,-4589.276840,7698.141797,-70787.224015
4931.625697,-3849.070898,3404.947333,-76303.111601
4931.628235,-15692.365970,7698.141797,-74464.482406
4931.630773,-2812.782580,6957.935855,-76915.987999
4931.633311,-6661.853478,10214.842000,-79367.493593
4931.635850,-3108.864956,11991.336260,-77988.521696
4931.638388,-7254.018232,7994.224174,-75077.358804
4931.640926,-2368.659014,-888.247130,-77222.426198
4931.643464,-5477.523971,444.123565,-75996.673402
4931.646002,-8290.306550,6957.935855,-73391.948708
4931.648541,-4589.276840,11547.212695,-74770.920605
4931.651079,-2368.659014,5477.523971,-74924.139704
4931.653617,-8438.347739,11547.212695,-70634.004916
4931.656155,1184.329507,4737.318029,-70327.566716
4931.658693,-14656.077652,15544.324782,-70021.128517
4931.661232,-16136.489536,8290.306550,-69561.471218
4931.663770,18801.230927,-10214.842000,-83351.190182
4931.666308,-15396.283594,19837.519246,-66650.308326
4931.668846,2072.576638,-3701.029710,-78294.959896
4931.671384,9326.594869,-8734.430116,-85036.600278
4931.673923,-24722.878463,14211.954086,-64045.583633
4931.676461,21465.972318,-8734.430116,-80133.589091
4931.678999,-2072.576638,3997.112087,-72779.072310
4931.681537,-5033.400406,7105.977043,-69408.252119
4931.684075,-1184.329507,-444.123565,-77069.207099
4931.686614,-6365.771101,740.205942,-75843.454302
4931.689152,-148.041188,4589.276840,-71706.538613
4931.691690,3997.112087,-296.082377,-77528.864398
4931.694228,5033.400406,-2664.741391,-76303.111601
4931.696766,-4145.153275,3997.112087,-70634.004916
4931.699305,-5033.400406,1924.535449,-75383.797003
4931.701841,1332.370696,1036.288319,-77375.645298
4931.704378,888.247130,8142.265362,-72166.195912
4931.706915,1776.494261,3997.112087,-73698.386908
4931.709452,-3108.864956,2368.659014,-75230.577904
4931.711989,-8734.430116,4885.359217,-75230.577904
4931.714526,-740.205942,2812.782580,-77528.864398
4931.717063,-740.205942,3701.029710,-77682.083497
4931.719600,1628.453072,4885.359217,-72932.291410
4931.722136,444.123565,-2664.741391,-73085.510509
4931.724673,3404.947333,-4145.153275,-78448.178995
4931.727210,4293.194464,-6069.688724,-77682.083497
4931.729747,-7254.018232,-888.247130,-78601.398095
4931.732284,-2960.823768,3997.112087,-76456.330700
4931.734821,-3404.947333,4293.194464,-75996.673402
4931.737358,2368.659014,10362.883188,-72166.195912
4931.739894,8290.306550,-2220.617826,-73698.386908
4931.742431,-5329.482782,-1184.329507,-73545.167808
4931.744968,-9474.636058,2960.823768,-71400.100414
4931.747505,14063.912898,-2960.823768,-79214.274493
4931.750042,-16284.530724,11251.130318,-71093.662214
4931.752579,14063.912898,-9030.512492,-82891.532884
4931.755116,-12731.542202,22502.260637,-66497.089226
4931.757652,-17912.983796,10510.924376,-68795.375720
4931.760189,17320.819043,-8438.347739,-85802.695776
4931.762726,-30496.484810,30200.402434,-60061.887043
4931.765263,-2664.741391,10214.842000,-68488.937521
4931.767800,2960.823768,-3404.947333,-81512.560987
4931.770337,-17764.942608,11843.295072,-68642.156621
4931.772874,-6217.729913,7105.977043,-72932.291410
4931.775410,-2812.782580,6069.688724,-77375.645298
4931.777947,-4293.194464,10362.883188,-73391.948708
4931.780484,-296.082377,3256.906145,-73698.386908
4931.783021,-7105.977043,5477.523971,-75690.235202
4931.785558,-9622.677246,9622.677246,-70327.566716
4931.788095,-4145.153275,3256.906145,-75230.577904
4931.790632,148.041188,6365.771101,-77682.083497
4931.793169,-7105.977043,11251.130318,-72166.195912
4931.795705,-5921.647536,7698.141797,-76149.892501
4931.798242,-3256.906145,-1184.329507,-77835.302597
4931.800779,-7105.977043,6069.688724,-77222.426198
4931.803315,-7698.141797,6957.935855,-74158.044206
4931.805852,1628.453072,2220.617826,-77069.207099
4931.808388,-11547.212695,7698.141797,-74311.263306
4931.810924,-11251.130318,12731.542202,-73545.167808
4931.813461,-9622.677246,14656.077652,-74770.920605
4931.815997,-3404.947333,13027.624579,-73391.948708
4931.818533,3997.112087,7550.100608,-70940.443115
4931.821070,-8290.306550,5625.565159,-71706.538613
4931.823606,-6661.853478,9030.512492,-71553.319513
4931.826142,-6957.935855,5773.606348,-71859.757712
4931.828679,-6365.771101,12287.418637,-74617.701505
4931.831215,3552.988522,3256.906145,-76303.111601
4931.833751,-6069.688724,7550.100608,-74924.139704
4931.836287,-14508.036463,7846.182985,-75690.235202
4931.838824,2516.700203,740.205942,-76609.549800
4931.841360,-16284.530724,12731.542202,-67263.184724
4931.843896,22206.178260,-6957.935855,-80286.808190
4931.846433,-5773.606348,14508.036463,-69867.909418
4931.848969,-10362.883188,4293.194464,-72472.634111
4931.851505,12139.377449,-13471.748144,-86568.791274
4931.854042,-26499.372724,17764.942608,-63126.269035
4931.856578,22798.343014,-6365.771101,-79520.712692
4931.859114,1776.494261,444.123565,-75230.577904
4931.861651,-9178.553681,11843.295072,-65884.212828
4931.864187,-2072.576638,1332.370696,-72319.415011
4931.866723,-1332.370696,-1184.329507,-75690.235202
4931.869260,0.000000,6217.729913,-76149.892501
4931.871796,592.164754,-2664.741391,-77528.864398
4931.874332,3404.947333,-3552.988522,-81206.122788
4931.876868,-3404.947333,4885.359217,-72779.072310
4931.879405,-5477.523971,444.123565,-75230.577904
4931.881941,1332.370696,1480.411884,-76609.549800
4931.884477,-1628.453072,2072.576638,-74770.920605
4931.887013,-6513.812290,6513.812290,-70021.128517
4931.889548,-3701.029710,5033.400406,-69867.909418
4931.892084,-888.247130,1184.329507,-76149.892501
4931.894620,-1776.494261,6217.729913,-76609.549800
4931.897156,1924.535449,888.247130,-77835.302597
4931.899691,-3701.029710,-6513.812290,-79214.274493
4931.902227,10807.006753,-7698.141797,-82431.875585
4931.904763,-9770.718434,-2516.700203,-79214.274493
4931.907299,1628.453072,2812.782580,-79827.150892
4931.909834,-592.164754,740.205942,-76915.987999
4931.912370,-6661.853478,7550.100608,-73085.510509
4931.914906,9918.759623,6809.894666,-71706.538613
4931.917442,-4441.235652,-2072.576638,-72166.195912
4931.919977,-888.247130,-3256.906145,-74924.139704
4931.922513,-2960.823768,7105.977043,-71246.881314
4931.925049,9178.553681,-5181.441594,-76762.768900
4931.927585,1184.329507,9326.594869,-71246.881314
4931.930120,-25611.125593,16136.489536,-65884.212828
4931.932656,12287.418637,-8734.430116,-85955.914876
4931.935192,-20873.807564,22502.260637,-64658.460031
4931.937728,-6957.935855,1924.535449,-78448.178995
4931.940263,7402.059420,-592.164754,-84117.285680
4931.942799,-13323.706956,15248.242405,-62360.173537
4931.945335,2220.617826,-4145.153275,-80746.465489
4931.947871,-10510.924376,5329.482782,-71553.319513
4931.950406,-13619.789333,13175.665768,-72319.415011
4931.952942,-5921.647536,14952.160028,-71093.662214
4931.955478,4589.276840,148.041188,-79980.369991
4931.958014,-14804.118840,7402.059420,-71706.538613
4931.960549,-2664.741391,4737.318029,-73698.386908
4931.963085,-5625.565159,3108.864956,-77222.426198
4931.965621,-10955.047942,9474.636058,-72319.415011
4931.968157,1036.288319,4441.235652,-76762.768900
4931.970692,-12879.583391,7698.141797,-79061.055394
4931.973228,1628.453072,5477.523971,-75383.797003
4931.975764,-3849.070898,3108.864956,-74617.701505
4931.978300,-3701.029710,6809.894666,-75690.235202
4931.980835,-296.082377,4145.153275,-72779.072310
4931.983371,-8882.471304,6513.812290,-71553.319513
4931.985909,-10807.006753,8734.430116,-75537.016103
4931.988446,-5921.647536,10510.924376,-77835.302597
4931.990983,-6365.771101,12879.583391,-73545.167808
4931.993521,5773.606348,5181.441594,-73238.729609
4931.996058,-11843.295072,4145.153275,-72472.634111
4931.998596,-9030.512492,4885.359217,-72625.853210
4932.001133,-11399.171507,6809.894666,-72012.976812
4932.003671,888.247130,9178.553681,-74311.263306
4932.006208,1184.329507,12583.501014,-70634.004916
4932.008746,-4441.235652,5477.523971,-72472.634111
4932.011283,-19245.354492,10955.047942,-74158.044206
4932.013821,1184.329507,-8142.265362,-83964.066581
4932.016358,-3108.864956,8142.265362,-76609.549800
4932.018895,1480.411884,3552.988522,-75537.016103
4932.021433,13471.748144,-9326.594869,-81972.218286
4932.023970,-14656.077652,8882.471304,-69714.690318
4932.026508,-6513.812290,4737.318029,-68948.594820
4932.029045,7402.059420,-3108.864956,-80440.027290
4932.031583,296.082377,5773.606348,-71553.319513
4932.034120,8734.430116,-1628.453072,-81818.999186
4932.036658,-10955.047942,1332.370696,-78448.178995
4932.039195,-5033.400406,2812.782580,-73085.510509
4932.041732,-6217.729913,444.123565,-72012.976812
4932.044270,10214.842000,-148.041188,-78141.740796
4932.046807,-592.164754,6365.771101,-71553.319513
4932.049345,592.164754,-2368.659014,-76303.111601
4932.051882,-3404.947333,3701.029710,-72779.072310
4932.054420,-10362.883188,6809.894666,-68182.499322
4932.056957,8142.265362,3256.906145,-75383.797003
4932.059495,-2664.741391,-2960.823768,-78141.740796
4932.062032,-7994.224174,1332.370696,-78907.836294
4932.064570,4589.276840,3404.947333,-76915.987999
4932.067107,-2516.700203,4737.318029,-73545.167808
4932.069644,3404.947333,3849.070898,-77069.207099
4932.072182,10066.800811,-9030.512492,-82738.313784
4932.074719,-6957.935855,-444.123565,-75996.673402
4932.077257,1924.535449,-1184.329507,-75996.673402
4932.079794,-9326.594869,1036.288319,-75383.797003
4932.082332,1036.288319,4145.153275,-75537.016103
4932.084869,6513.812290,6957.935855,-73851.606007
4932.087406,-2368.659014,3849.070898,-71706.538613
4932.089943,-888.247130,1332.370696,-74617.701505
4932.092481,-1036.288319,-4441.235652,-75996.673402
4932.095018,8142.265362,-2960.823768,-79673.931792
4932.097555,-7254.018232,4145.153275,-72166.195912
4932.100092,16432.571912,-9326.594869,-85802.695776
4932.102629,-22206.178260,25759.166782,-65577.774629
4932.105167,-11251.130318,3108.864956,-74004.825107
4932.107704,10658.965565,-592.164754,-82125.437386
4932.110241,-23094.425390,27091.537477,-61440.858940
4932.112778,15544.324782,-10066.800811,-90858.926063
4932.115315,-7402.059420,4589.276840,-78448.178995
4932.117853,-21910.095883,12731.542202,-67263.184724
4932.120390,296.082377,-3108.864956,-80899.684589
4932.122927,-444.123565,8586.388927,-73851.606007
4932.125464,-10066.800811,20873.807564,-66497.089226
4932.128001,1184.329507,8882.471304,-72319.415011
4932.130539,1628.453072,-1184.329507,-79367.493593
4932.133076,-18801.230927,10658.965565,-69408.252119
4932.135613,2960.823768,3256.906145,-75077.358804
4932.138150,-592.164754,1924.535449,-79827.150892
4932.140687,-10510.924376,11399.171507,-73238.729609
4932.143225,-2960.823768,3404.947333,-77222.426198
4932.145762,-10510.924376,1480.411884,-74464.482406
4932.148299,1332.370696,5477.523971,-74464.482406
4932.150836,-4589.276840,5625.565159,-76609.549800
4932.153373,-5773.606348,5329.482782,-76149.892501
4932.155911,-9918.759623,11103.089130,-75537.016103
4932.158448,-13027.624579,12583.501014,-74770.920605
4932.160985,2516.700203,10807.006753,-74158.044206
4932.163522,-7402.059420,8438.347739,-69408.252119
4932.166059,-13323.706956,7846.182985,-72932.291410
4932.168597,-3256.906145,2812.782580,-74617.701505
4932.171134,-16728.654289,9918.759623,-76149.892501
4932.173671,6069.688724,2368.659014,-81665.780087
4932.176208,-1036.288319,4441.235652,-78448.178995
4932.178745,-11843.295072,8882.471304,-71400.100414
4932.181282,-1184.329507,6809.894666,-74311.263306
4932.183820,-17912.983796,5773.606348,-70174.347617
4932.186357,18209.066173,-1776.494261,-79061.055394
4932.188890,-11251.130318,12287.418637,-68335.718422
4932.191428,4441.235652,-10658.965565,-82738.313784
4932.193966,4589.276840,-1924.535449,-80899.684589
4932.196504,-21317.931130,6809.894666,-68795.375720
4932.199042,17764.942608,-3552.988522,-76609.549800
4932.201579,13471.748144,2664.741391,-70787.224015
4932.204117,-11251.130318,9770.718434,-68642.156621
4932.206655,-592.164754,1184.329507,-77682.083497
4932.209193,-2072.576638,-2516.700203,-75843.454302
4932.211731,-7105.977043,5625.565159,-70480.785816
4932.214268,14063.912898,-1332.370696,-77682.083497
4932.216806,-2960.823768,3552.988522,-76149.892501
4932.219344,-4885.359217,4441.235652,-73085.510509
4932.221882,1480.411884,-3701.029710,-79673.931792
4932.224419,-7402.059420,888.247130,-78141.740796
4932.226957,6217.729913,-296.082377,-76915.987999
4932.229495,-6217.729913,3849.070898,-74464.482406
4932.232033,-3404.947333,5773.606348,-71400.100414
4932.234571,3256.906145,4293.194464,-73238.729609
4932.237108,-1036.288319,-888.247130,-76915.987999
4932.239646,14063.912898,-2516.700203,-80593.246390
4932.242184,-6513.812290,0.000000,-74311.263306
4932.244722,-5477.523971,592.164754,-72319.415011
4932.247260,-1036.288319,-3256.906145,-74464.482406
4932.249797,-8142.265362,4885.359217,-72932.291410
4932.252335,12435.459826,7254.018232,-74004.825107
4932.254873,-1036.288319,-2960.823768,-75690.235202
4932.257411,-740.205942,3997.112087,-71859.757712
4932.259948,-11843.295072,3997.112087,-71246.881314
4932.262486,7105.977043,-4589.276840,-82125.437386
4932.265024,-1924.535449,6365.771101,-76609.549800
4932.267562,6069.688724,-13619.789333,-85649.476676
4932.270100,2812.782580,1480.411884,-82125.437386
4932.272637,-25167.002028,23242.466579,-65118.117330
4932.275175,9770.718434,-7698.141797,-85189.819378
4932.277713,-3256.906145,17172.777854,-70021.128517
4932.280251,-8882.471304,14063.912898,-62206.954438
4932.282788,-1628.453072,-8142.265362,-84117.285680
4932.285326,-11991.336260,7698.141797,-72012.976812
4932.287864,-11251.130318,8734.430116,-72319.415011
4932.290404,0.000000,3701.029710,-78294.959896
4932.292943,-296.082377,9474.636058,-75077.358804
4932.295483,-12583.501014,13323.706956,-71246.881314
4932.298022,1184.329507,1480.411884,-75843.454302
4932.300562,-2516.700203,444.123565,-78141.740796
4932.303101,-9770.718434,9622.677246,-71553.319513
4932.305641,5181.441594,7698.141797,-77528.864398
4932.308180,-3849.070898,2220.617826,-80440.027290
4932.310720,-6069.688724,5181.441594,-72012.976812
4932.313259,-2368.659014,4737.318029,-69561.471218
4932.315799,-9474.636058,5773.606348,-75077.358804
4932.318338,-296.082377,5181.441594,-78754.617194
4932.320878,-15692.365970,10510.924376,-74004.825107
4932.323418,-3404.947333,10658.965565,-76609.549800
4932.325957,-3552.988522,5921.647536,-77528.864398
4932.328497,-10066.800811,11695.253884,-72932.291410
4932.331036,2220.617826,6809.894666,-74311.263306
4932.333576,-10362.883188,3701.029710,-75843.454302
4932.336115,-4145.153275,10214.842000,-72166.195912
4932.338655,-3256.906145,4885.359217,-72932.291410
4932.341194,-1628.453072,6513.812290,-75383.797003
4932.343734,-14804.118840,14211.954086,-73698.386908
4932.346273,740.205942,-5773.606348,-81359.341888
4932.348813,-6513.812290,11991.336260,-73085.510509
4932.351352,-1480.411884,3849.070898,-73391.948708
4932.353892,20281.642811,-11547.212695,-82585.094684
4932.356432,-17912.983796,12879.583391,-62513.392637
4932.358971,10955.047942,-10066.800811,-77375.645298
4932.361511,-8142.265362,3849.070898,-76149.892501
4932.364050,6661.853478,5921.647536,-73545.167808
4932.366590,1776.494261,-5329.482782,-80899.684589
4932.369129,-2220.617826,7402.059420,-74617.701505
4932.371669,-7402.059420,3256.906145,-72932.291410
4932.374208,-888.247130,-7994.224174,-73085.510509
4932.376748,5773.606348,-3256.906145,-78141.740796
4932.379287,-1036.288319,4737.318029,-74311.263306
4932.381827,1036.288319,5033.400406,-74311.263306
4932.384366,-2812.782580,740.205942,-75996.673402
4932.386906,-8438.347739,6661.853478,-70787.224015
4932.389445,6957.935855,2368.659014,-74770.920605
4932.391985,-1924.535449,888.247130,-77375.645298
4932.394525,-5329.482782,8290.306550,-75843.454302
4932.397065,2516.700203,3701.029710,-74311.263306
4932.399604,-2368.659014,1776.494261,-75383.797003
4932.402144,10510.924376,-296.082377,-76456.330700
4932.404684,-3849.070898,-5477.523971,-78294.959896
4932.407224,444.123565,-3404.947333,-76762.768900
4932.409763,-1332.370696,-1184.329507,-73085.510509
4932.412303,-4145.153275,7105.977043,-73698.386908
4932.414843,7254.018232,2960.823768,-76762.768900
4932.417382,444.123565,2072.576638,-77528.864398
4932.419922,-4589.276840,-2516.700203,-78601.398095
4932.422462,-3256.906145,5329.482782,-73851.606007
4932.425002,1184.329507,-2072.576638,-72472.634111
4932.427541,8734.430116,4589.276840,-75230.577904
4932.430081,-21465.972318,14804.118840,-67416.403824
4932.432621,13027.624579,-6661.853478,-86722.010374
4932.435160,-23686.590144,21762.054695,-67416.403824
4932.437700,-9918.759623,4441.235652,-76456.330700
4932.440240,8882.471304,5033.400406,-82278.656485
4932.442780,-10658.965565,13767.830521,-62973.049936
4932.445319,-3256.906145,-3552.988522,-79367.493593
4932.447859,148.041188,-4145.153275,-84423.723880
4932.450399,-7105.977043,9474.636058,-74770.920605
4932.452938,-10214.842000,15692.365970,-70634.004916
4932.455478,5625.565159,2664.741391,-80133.589091
4932.458018,-11399.171507,10510.924376,-74464.482406
4932.460558,-6513.812290,7698.141797,-71246.881314
4932.463097,-1184.329507,-1628.453072,-76456.330700
4932.465637,-13323.706956,8882.471304,-68642.156621
4932.468177,7994.224174,3997.112087,-73545.167808
4932.470717,-8734.430116,7105.977043,-73851.606007
4932.473256,-3108.864956,9622.677246,-70327.566716
4932.475796,-3849.070898,2960.823768,-75383.797003
4932.478336,-7105.977043,2368.659014,-78601.398095
4932.480875,-9622.677246,10214.842000,-76149.892501
4932.483415,-11991.336260,15248.242405,-67109.965625
4932.485955,-6957.935855,10658.965565,-71400.100414
4932.488495,-4441.235652,10362.883188,-73545.167808
4932.491034,-9770.718434,9326.594869,-70634.004916
4932.493575,-3849.070898,5329.482782,-72472.634111
4932.496116,-1184.329507,4145.153275,-74464.482406
4932.498656,-11103.089130,8290.306550,-70480.785816
4932.501197,7254.018232,2368.659014,-80286.808190
4932.503737,-15100.201217,11251.130318,-77222.426198
4932.506278,740.205942,1184.329507,-78601.398095
4932.508819,-15692.365970,11103.089130,-72319.415011
4932.511359,3849.070898,-3849.070898,-77835.302597
4932.513900,16136.489536,1332.370696,-74311.263306
4932.516441,-15544.324782,10807.006753,-61440.858940
4932.518981,7402.059420,-8290.306550,-78907.836294
4932.521522,-888.247130,2368.659014,-78294.959896
4932.524063,-9770.718434,9474.636058,-70480.785816
4932.526603,14804.118840,-5033.400406,-81818.999186
4932.529144,-9326.594869,10362.883188,-72012.976812
4932.531685,-2220.617826,5625.565159,-74924.139704
4932.534225,5625.565159,-10066.800811,-81206.122788
4932.536766,-3997.112087,2516.700203,-74158.044206
4932.539306,4145.153275,2368.659014,-72779.072310
4932.541847,1776.494261,1332.370696,-75690.235202
4932.544388,-6513.812290,4441.235652,-75077.358804
4932.546928,1184.329507,1332.370696,-76303.111601
4932.549469,-6069.688724,5625.565159,-75843.454302
4932.552010,4145.153275,4737.318029,-76456.330700
4932.554550,-2220.617826,1480.411884,-74924.139704
4932.557091,-5921.647536,3997.112087,-75077.358804
4932.559632,10066.800811,-296.082377,-74924.139704
4932.562172,-1332.370696,-148.041188,-72932.291410
4932.564713,5033.400406,-3701.029710,-75996.673402
4932.567254,-2960.823768,-3256.906145,-76303.111601
4932.569794,-8734.430116,2960.823768,-72625.853210
4932.572335,6809.894666,3108.864956,-75077.358804
4932.574876,-2812.782580,296.082377,-76456.330700
4932.577416,7846.182985,3108.864956,-77988.521696
4932.579957,-12287.418637,6513.812290,-76456.330700
4932.582497,6809.894666,-6513.812290,-81972.218286
4932.585038,-3552.988522,4293.194464,-76609.549800
4932.587579,-18949.272115,5181.441594,-71400.100414
4932.590119,13323.706956,-6957.935855,-85189.819378
4932.592660,-26795.455100,22502.260637,-65424.555529
4932.595202,-1628.453072,2664.741391,-81665.780087
4932.597744,2664.741391,11547.212695,-79061.055394
4932.600286,-8882.471304,11843.295072,-66803.527426
4932.602828,2960.823768,-9622.677246,-84270.504780
4932.605370,-10066.800811,4293.194464,-74311.263306
4932.607912,-13471.748144,8882.471304,-73391.948708
4932.610454,4145.153275,2812.782580,-80593.246390
4932.612996,-4737.318029,14063.912898,-72779.072310
4932.615538,-11843.295072,17024.736666,-68182.499322
4932.618080,2072.576638,-1924.535449,-76456.330700
4932.620622,-11399.171507,5477.523971,-75383.797003
4932.623163,-12583.501014,5773.606348,-70787.224015
4932.625705,5181.441594,3552.988522,-75230.577904
4932.628247,-8438.347739,7254.018232,-75690.235202
4932.630789,-2664.741391,5329.482782,-72319.415011
4932.633331,-7550.100608,3404.947333,-75077.358804
4932.635873,-6069.688724,6661.853478,-75996.673402
4932.638415,-3701.029710,8882.471304,-76303.111601
4932.640957,-10658.965565,14211.954086,-73545.167808
4932.643499,-4293.194464,13175.665768,-73851.606007
4932.646041,-10362.883188,10214.842000,-73545.167808
4932.648583,-2368.659014,8290.306550,-72625.853210
4932.651125,-6513.812290,9474.636058,-71400.100414
4932.653667,-3552.988522,-888.247130,-75843.454302
4932.656209,-1924.535449,0.000000,-77988.521696
4932.658751,-6957.935855,7698.141797,-75690.235202
4932.661293,-148.041188,11399.171507,-74311.263306
4932.663835,-13915.871710,11251.130318,-69714.690318
4932.666377,7254.018232,-2812.782580,-79980.369991
4932.668919,-7254.018232,14952.160028,-69561.471218
4932.671461,7550.100608,-13767.830521,-82125.437386
4932.674003,10807.006753,-12139.377449,-85036.600278
4932.676545,-16728.654289,7402.059420,-64964.898230
4932.679086,11843.295072,-5625.565159,-80440.027290
4932.681628,-888.247130,4293.194464,-73391.948708
4932.684170,-2368.659014,8734.430116,-71859.757712
4932.686712,1480.411884,3849.070898,-76915.987999
4932.689254,-1036.288319,-1036.288319,-75230.577904
4932.691796,-5329.482782,-2664.741391,-73391.948708
4932.694338,6217.729913,-1628.453072,-74617.701505
4932.696880,3108.864956,592.164754,-75996.673402
4932.699423,-10066.800811,4737.318029,-73391.948708
4932.701965,1776.494261,4145.153275,-75690.235202
4932.704507,-2664.741391,1776.494261,-77528.864398
4932.707049,-3997.112087,8734.430116,-71859.757712
4932.709591,4145.153275,740.205942,-77375.645298
4932.712133,-4145.153275,1184.329507,-75690.235202
4932.714676,4737.318029,3108.864956,-72932.291410
4932.717218,4589.276840,-3108.864956,-72932.291410
4932.719760,888.247130,-2072.576638,-75537.016103
4932.722302,-2960.823768,0.000000,-74464.482406
4932.724844,-6069.688724,-592.164754,-75843.454302
4932.727386,7402.059420,148.041188,-75843.454302
4932.729929,296.082377,7698.141797,-73851.606007
4932.732471,-9770.718434,3997.112087,-73851.606007
4932.735013,7105.977043,-2812.782580,-79980.369991
4932.737555,-17320.819043,1332.370696,-71553.319513
4932.740097,16284.530724,-7846.182985,-80440.027290
4932.742639,-7698.141797,21614.013506,-65730.993728
4932.745182,-10510.924376,-592.164754,-76915.987999
4932.747724,2960.823768,7846.182985,-79673.931792
4932.750266,-30348.443622,31236.690752,-62206.954438
4932.752808,14952.160028,-5181.441594,-88254.201370
4932.755350,-6217.729913,4737.318029,-73238.729609
4932.757893,-12879.583391,7550.100608,-70787.224015
4932.760435,4441.235652,-6809.894666,-82891.532884
4932.762977,-13323.706956,8882.471304,-72625.853210
4932.765519,-11695.253884,17912.983796,-67569.622924
4932.768061,5477.523971,10658.965565,-76456.330700
4932.770603,-6661.853478,4145.153275,-79061.055394
4932.773146,-14656.077652,7698.141797,-71400.100414
4932.775688,-3108.864956,-296.082377,-74004.825107
4932.778230,-3997.112087,2072.576638,-79061.055394
4932.780772,1184.329507,7698.141797,-72472.634111
4932.783314,-5477.523971,5181.441594,-73238.729609
4932.785856,-5181.441594,3552.988522,-76762.768900
4932.788399,-1036.288319,2960.823768,-76149.892501
4932.790941,-14211.954086,5625.565159,-76303.111601
4932.793483,-1924.535449,5329.482782,-80899.684589
4932.796025,-13767.830521,12435.459826,-74770.920605
4932.798568,-5477.523971,14063.912898,-75230.577904
4932.801111,-592.164754,7402.059420,-75690.235202
4932.803654,-7994.224174,5921.647536,-72472.634111
4932.806196,-6365.771101,3108.864956,-69867.909418
4932.808739,4293.194464,-3256.906145,-79061.055394
4932.811282,-17320.819043,9918.759623,-76303.111601
4932.813825,13915.871710,4441.235652,-79367.493593
4932.816368,-21910.095883,17468.860231,-66650.308326
4932.818911,9030.512492,-3849.070898,-79061.055394
4932.821454,4293.194464,8438.347739,-73545.167808
4932.823996,-11695.253884,592.164754,-72012.976812
4932.826539,23390.507767,-19097.313304,-89786.392366
4932.829082,-22650.301825,10510.924376,-65730.993728
4932.831625,6513.812290,-1480.411884,-76149.892501
4932.834168,7105.977043,1480.411884,-73545.167808
4932.836711,-7550.100608,12287.418637,-72472.634111
4932.839253,1184.329507,7402.059420,-73085.510509
4932.841796,4589.276840,-7550.100608,-81052.903688
4932.844339,-5773.606348,1924.535449,-75383.797003
4932.846882,4441.235652,-1776.494261,-75690.235202
4932.849425,1036.288319,1036.288319,-78754.617194
4932.851968,-7254.018232,3404.947333,-73698.386908
4932.854510,888.247130,-148.041188,-73391.948708
4932.857053,-4737.318029,8882.471304,-71553.319513
4932.859596,5181.441594,6365.771101,-72779.072310
4932.862139,-6217.729913,3849.070898,-75383.797003
4932.864682,-2516.700203,148.041188,-75230.577904
4932.867225,3404.947333,-1924.535449,-75843.454302
4932.869768,5921.647536,-3997.112087,-81206.122788
4932.872310,3108.864956,-2220.617826,-76609.549800
4932.874853,-7550.100608,3108.864956,-74770.920605
4932.877396,-888.247130,2072.576638,-71553.319513
4932.879939,4145.153275,6809.894666,-70327.566716
4932.882482,296.082377,6513.812290,-70940.443115
4932.885025,-296.082377,9178.553681,-72166.195912
4932.887567,296.082377,-3701.029710,-73391.948708
4932.890110,0.000000,6069.688724,-71400.100414
4932.892653,-14359.995275,9326.594869,-66497.089226
4932.895196,12879.583391,-9030.512492,-85955.914876
4932.897739,-24426.796086,23686.590144,-67109.965625
4932.900283,-6513.812290,888.247130,-83197.971083
4932.902827,-1036.288319,9770.718434,-81512.560987
4932.905370,-9474.636058,16284.530724,-62360.173537
4932.907914,-8734.430116,5477.523971,-73391.948708
4932.910458,1628.453072,-6217.729913,-82431.875585
4932.913002,-13619.789333,10214.842000,-70174.347617
4932.915546,-9770.718434,10955.047942,-73391.948708
4932.918090,4293.194464,6217.729913,-82125.437386
4932.920634,-11547.212695,12583.501014,-74770.920605
4932.923177,-4293.194464,3997.112087,-74464.482406
4932.925721,-3404.947333,2072.576638,-75996.673402
4932.928265,-8586.388927,7254.018232,-73851.606007
4932.930809,3997.112087,4441.235652,-75537.016103
4932.933353,-7254.018232,3997.112087,-75537.016103
4932.935897,-4293.194464,8438.347739,-72472.634111
4932.938441,-3404.947333,5033.400406,-73085.510509
4932.940985,-14211.954086,6365.771101,-75537.016103
4932.943528,-6957.935855,6809.894666,-78448.178995
4932.946072,-7550.100608,13471.748144,-73698.386908
4932.948616,740.205942,13323.706956,-75077.358804
4932.951160,-9770.718434,10658.965565,-75537.016103
4932.953704,-5477.523971,1776.494261,-75230.577904
4932.956248,-5921.647536,1924.535449,-72012.976812
4932.958792,-2220.617826,3701.029710,-71706.538613
4932.961336,-11695.253884,13767.830521,-73391.948708
4932.963879,9770.718434,-2812.782580,-81665.780087
4932.966423,-13619.789333,15396.283594,-70940.443115
4932.968967,-9770.718434,4441.235652,-74617.701505
4932.971511,21317.931130,-10066.800811,-81512.560987
4932.974055,-12731.542202,12879.583391,-61747.297139
4932.976599,12139.377449,-15692.365970,-80746.465489
4932.979143,4589.276840,-4885.359217,-83504.409282
4932.981686,-5921.647536,11547.212695,-70940.443115
4932.984229,4441.235652,1332.370696,-78907.836294
4932.986772,-6217.729913,2220.617826,-79061.055394
4932.989316,-2072.576638,6217.729913,-73545.167808
4932.991859,1332.370696,-2072.576638,-73698.386908
4932.994402,2516.700203,-5329.482782,-79980.369991
4932.996946,-2664.741391,1480.411884,-74617.701505
4932.999489,-1628.453072,2664.741391,-75077.358804
4933.002032,-888.247130,1480.411884,-76609.549800
4933.004575,-5329.482782,2516.700203,-72472.634111
4933.007119,1036.288319,5477.523971,-74158.044206
4933.009662,3108.864956,444.123565,-80440.027290
4933.012205,-7550.100608,4145.153275,-76456.330700
4933.014749,3256.906145,-3256.906145,-74924.139704
4933.017292,5625.565159,-6513.812290,-78294.959896
4933.019835,-4589.276840,-592.164754,-74617.701505
4933.022378,148.041188,2072.576638,-74464.482406
4933.024922,740.205942,2220.617826,-75077.358804
4933.027465,148.041188,5181.441594,-74924.139704
4933.030008,8290.306550,444.123565,-76762.768900
4933.032552,-9474.636058,11695.253884,-68948.594820
4933.035095,4589.276840,-4589.276840,-73085.510509
4933.037638,-592.164754,5921.647536,-73698.386908
4933.040181,-16580.613101,10066.800811,-70480.785816
4933.042725,18505.148550,-9326.594869,-85955.914876
4933.045268,-32569.061448,22946.384202,-66650.308326
4933.047811,-21614.013506,18505.148550,-70480.785816
4933.050355,10066.800811,-4589.276840,-85955.914876
4933.052898,-12287.418637,11103.089130,-68335.718422
4933.055441,-6217.729913,3108.864956,-73545.167808
4933.057985,-5625.565159,-3552.988522,-80593.246390
4933.060528,-7402.059420,12583.501014,-70021.128517
4933.063071,-9326.594869,8438.347739,-72472.634111
4933.065614,-2220.617826,9030.512492,-78448.178995
4933.068158,-4737.318029,13323.706956,-74311.263306
4933.070701,-3997.112087,2812.782580,-76609.549800
4933.073244,-6217.729913,2516.700203,-79214.274493
4933.075788,-4145.153275,5329.482782,-74924.139704
4933.078331,-888.247130,7846.182985,-73391.948708
4933.080874,-1184.329507,-888.247130,-76456.330700
4933.083418,-4885.359217,2516.700203,-75996.673402
4933.085962,-4885.359217,9326.594869,-75690.235202
4933.088506,-11991.336260,12731.542202,-72472.634111
4933.091050,-9178.553681,10214.842000,-74924.139704
4933.093594,-592.164754,13027.624579,-70940.443115
4933.096138,-7994.224174,10214.842000,-73698.386908
4933.098682,740.205942,10510.924376,-75230.577904
4933.101226,-7105.977043,6069.688724,-69867.909418
4933.103770,-7994.224174,296.082377,-75230.577904
4933.106314,-6513.812290,2960.823768,-76303.111601
4933.108858,3404.947333,7846.182985,-73698.386908
4933.111402,-14804.118840,15988.448347,-68488.937521
4933.113946,12287.418637,-7105.977043,-83197.971083
4933.116490,-13915.871710,17468.860231,-67569.622924
4933.119034,2368.659014,-3404.947333,-74924.139704
4933.121578,17468.860231,-22502.260637,-85496.257577
4933.124121,-17320.819043,8586.388927,-69408.252119
4933.126665,-4441.235652,9770.718434,-70940.443115
4933.129209,6661.853478,-4589.276840,-83044.751983
4933.131753,-1332.370696,4441.235652,-80286.808190
4933.134297,-6217.729913,5921.647536,-74770.920605
4933.136841,3849.070898,-4293.194464,-77682.083497
4933.139385,444.123565,-2960.823768,-74924.139704
4933.141929,-1480.411884,1480.411884,-71246.881314
4933.144473,148.041188,3849.070898,-76456.330700
4933.147017,-592.164754,2072.576638,-77069.207099
4933.149561,-7105.977043,10362.883188,-67876.061123
4933.152105,1332.370696,3849.070898,-70940.443115
4933.154649,1776.494261,-1184.329507,-78448.178995
4933.157193,-2812.782580,7994.224174,-73545.167808
4933.159737,4737.318029,-4885.359217,-77069.207099
4933.162281,-7698.141797,-2960.823768,-75690.235202
4933.164825,-3701.029710,1480.411884,-74158.044206
4933.167369,444.123565,-2960.823768,-75230.577904
4933.169913,592.164754,-6513.812290,-78294.959896
4933.172457,7994.224174,4737.318029,-73238.729609
4933.175001,-13471.748144,5625.565159,-72625.853210
4933.177545,11547.212695,-1776.494261,-80593.246390
4933.180089,-7994.224174,2220.617826,-76303.111601
4933.182633,5477.523971,-12287.418637,-83197.971083
4933.185174,-1776.494261,17616.901420,-67263.184724
4933.187719,-15840.407159,5921.647536,-70480.785816
4933.190264,8290.306550,4441.235652,-80746.465489
4933.192809,-27979.784608,31384.731941,-59755.448844
4933.195354,-4885.359217,11251.130318,-71093.662214
4933.197899,9622.677246,-9474.636058,-83044.751983
4933.200444,-17024.736666,13175.665768,-68335.718422
4933.202989,-7994.224174,4885.359217,-75690.235202
4933.205534,3997.112087,-296.082377,-79980.369991
4933.208079,-13767.830521,20577.725188,-68488.937521
4933.210624,-5625.565159,10807.006753,-74924.139704
4933.213169,592.164754,2960.823768,-79061.055394
4933.215714,-13471.748144,5181.441594,-71093.662214
4933.218259,6513.812290,6957.935855,-73545.167808
4933.220804,-5921.647536,6661.853478,-77835.302597
4933.223349,-3108.864956,296.082377,-76762.768900
4933.225893,-6957.935855,5477.523971,-71093.662214
4933.228438,-7550.100608,6661.853478,-73238.729609
4933.230983,-7105.977043,12435.459826,-73851.606007
4933.233528,-9030.512492,8882.471304,-73238.729609
4933.236073,-3997.112087,13175.665768,-72779.072310
4933.238618,-7402.059420,12583.501014,-72319.415011
4933.241163,-5921.647536,5477.523971,-74924.139704
4933.243708,-6069.688724,4293.194464,-70327.566716
4933.246253,-3108.864956,2812.782580,-72319.415011
4933.248798,-11991.336260,6513.812290,-76915.987999
4933.251343,9030.512492,5773.606348,-77835.302597
4933.253888,-19541.436869,17172.777854,-68488.937521
4933.256433,10955.047942,-7254.018232,-82125.437386
4933.258978,-2812.782580,7994.224174,-72319.415011
4933.261523,-11843.295072,3849.070898,-69867.909418
4933.264068,28719.990550,-22354.219448,-92544.336158
4933.266613,-8586.388927,4145.153275,-74158.044206
4933.269157,-6069.688724,8586.388927,-69101.813920
4933.271702,10510.924376,-6069.688724,-79520.712692
4933.274247,-9030.512492,8290.306550,-73238.729609
4933.276792,740.205942,5921.647536,-73085.510509
4933.279337,4293.194464,-5773.606348,-80133.589091
4933.281882,-2220.617826,-1332.370696,-77375.645298
4933.284427,888.247130,-1776.494261,-73851.606007
4933.286973,-4293.194464,2072.576638,-77988.521696
4933.289520,-2368.659014,1332.370696,-77222.426198
4933.292066,-6513.812290,6069.688724,-69714.690318
4933.294612,-1924.535449,7254.018232,-75230.577904
4933.297158,4885.359217,-740.205942,-79520.712692
4933.299705,-3256.906145,4145.153275,-75537.016103
4933.302251,9178.553681,1184.329507,-73391.948708
4933.304797,296.082377,-5329.482782,-75383.797003
4933.307343,-6661.853478,6957.935855,-70174.347617
4933.309890,9918.759623,1628.453072,-71246.881314
4933.312436,-6957.935855,6809.894666,-69408.252119
4933.314982,4589.276840,5773.606348,-70940.443115
4933.317528,-6513.812290,7402.059420,-70480.785816
4933.320075,1480.411884,444.123565,-72472.634111
4933.322621,2664.741391,6217.729913,-75383.797003
4933.325167,-21021.848753,6661.853478,-73391.948708
4933.327713,14656.077652,-4145.153275,-83964.066581
4933.330260,-26055.249158,22354.219448,-63892.364533
4933.332806,1332.370696,-1776.494261,-83504.409282
4933.335352,-2812.782580,16136.489536,-75077.358804
4933.337898,-11547.212695,13027.624579,-65884.212828
4933.340444,-6069.688724,-888.247130,-77988.521696
4933.342991,-3997.112087,-1924.535449,-80746.465489
4933.345537,-18061.024985,12731.542202,-71706.538613
4933.348083,1924.535449,2812.782580,-80746.465489
4933.350629,-1184.329507,7402.059420,-80746.465489
4933.353176,-15100.201217,18357.107362,-70940.443115
4933.355722,592.164754,296.082377,-77682.083497
4933.358268,-11547.212695,0.000000,-76762.768900
4933.360814,-3256.906145,5181.441594,-74464.482406
4933.363361,2960.823768,3849.070898,-74924.139704
4933.365907,-4737.318029,6217.729913,-73545.167808
4933.368453,-5921.647536,6661.853478,-70174.347617
4933.370999,-17468.860231,13619.789333,-69408.252119
4933.373546,-3552.988522,12879.583391,-78601.398095
4933.376092,-1332.370696,7698.141797,-76303.111601
4933.378638,-19097.313304,13027.624579,-72932.291410
4933.381184,7550.100608,7105.977043,-78601.398095
4933.383731,-11843.295072,2960.823768,-74924.139704
4933.386277,-3849.070898,7105.977043,-73545.167808
4933.388823,-6809.894666,740.205942,-77069.207099
4933.391369,1036.288319,5033.400406,-75537.016103
4933.393916,-10955.047942,20281.642811,-64505.240932
4933.396462,4293.194464,-7550.100608,-81359.341888
4933.399008,-4145.153275,12879.583391,-71093.662214
4933.401554,-7846.182985,-592.164754,-69714.690318
4933.404100,20725.766376,-21614.013506,-91318.583362
4933.406647,-16728.654289,10362.883188,-66037.431928
4933.409193,-7698.141797,5033.400406,-69714.690318
4933.411739,8882.471304,-2812.782580,-80899.684589
4933.414285,-3552.988522,10510.924376,-71859.757712
4933.416832,-2072.576638,9178.553681,-72779.072310
4933.419378,3701.029710,-6069.688724,-81359.341888
4933.421924,1776.494261,-3404.947333,-76609.549800
4933.424470,-3997.112087,888.247130,-72932.291410
4933.427016,12139.377449,4293.194464,-78294.959896
4933.429563,-7105.977043,6365.771101,-74617.701505
4933.432109,-7105.977043,4441.235652,-69408.252119
4933.434655,-1184.329507,3552.988522,-72166.195912
4933.437201,-2220.617826,5033.400406,-72932.291410
4933.439748,13915.871710,2664.741391,-74617.701505
4933.442294,-8734.430116,-592.164754,-72625.853210
4933.444840,2960.823768,-4589.276840,-75230.577904
4933.447386,7254.018232,-3108.864956,-77069.207099
4933.449932,-6069.688724,-1184.329507,-72932.291410
4933.452479,12731.542202,5625.565159,-74924.139704
4933.455025,-11103.089130,5181.441594,-73391.948708
4933.457571,3701.029710,-148.041188,-79827.150892
4933.460117,-7254.018232,444.123565,-75690.235202
4933.462664,6957.935855,-10955.047942,-83044.751983
4933.465210,-6513.812290,20873.807564,-65730.993728
4933.467756,-7550.100608,-444.123565,-73085.510509
4933.470302,2368.659014,4885.359217,-80133.589091
4933.472848,-25018.960840,31088.649564,-62513.392637
4933.475395,6661.853478,-3997.112087,-88100.982270
4933.477941,-296.082377,4293.194464,-73851.606007
4933.480487,-16136.489536,14804.118840,-66497.089226
4933.483033,-8586.388927,3849.070898,-75077.358804
4933.485580,5477.523971,-2516.700203,-81512.560987
4933.488126,-13175.665768,20281.642811,-67109.965625
4933.490673,-4737.318029,10658.965565,-75230.577904
4933.493220,-888.247130,3552.988522,-77682.083497
4933.495766,-12731.542202,7402.059420,-66803.527426
4933.498313,4293.194464,7254.018232,-69867.909418
4933.500860,-2220.617826,3404.947333,-80440.027290
4933.503407,-6809.894666,2368.659014,-78754.617194
4933.505954,-4885.359217,4589.276840,-72472.634111
4933.508501,-14656.077652,10066.800811,-73238.729609
4933.511048,-6069.688724,8882.471304,-76303.111601
4933.513595,-4737.318029,11251.130318,-74617.701505
4933.516142,-8438.347739,12879.583391,-75537.016103
4933.518688,1924.535449,5625.565159,-77375.645298
4933.521235,-13471.748144,1184.329507,-75383.797003
4933.523782,-4145.153275,7698.141797,-70021.128517
4933.526329,-7698.141797,3552.988522,-73545.167808
4933.528876,4441.235652,2664.741391,-78448.178995
4933.531423,-7846.182985,16876.695478,-68029.280222
4933.533970,-148.041188,-4145.153275,-79367.493593
4933.536517,3256.906145,9178.553681,-73545.167808
4933.539063,-10510.924376,740.205942,-70021.128517
4933.541610,7994.224174,-14508.036463,-78907.836294
4933.544157,148.041188,-148.041188,-76915.987999
4933.546704,-6513.812290,8882.471304,-68029.280222
4933.549251,6365.771101,-3108.864956,-79980.369991
4933.551798,6661.853478,-888.247130,-81359.341888
4933.554345,-6809.894666,6661.853478,-73851.606007
4933.556892,-1184.329507,-444.123565,-74924.139704
4933.559439,7994.224174,-12879.583391,-83810.847481
4933.561985,-10955.047942,1776.494261,-77375.645298
4933.564532,2960.823768,6365.771101,-77375.645298
4933.567079,-5477.523971,-2072.576638,-80286.808190
4933.569626,-6217.729913,3256.906145,-72012.976812
4933.572173,4441.235652,3997.112087,-71553.319513
4933.574720,296.082377,1184.329507,-76915.987999
4933.577267,16580.613101,-3552.988522,-79214.274493
4933.579814,-9622.677246,-2072.576638,-74770.920605
4933.582360,-1480.411884,-888.247130,-74617.701505
4933.584907,4885.359217,-4737.318029,-74004.825107
4933.587454,-5329.482782,8290.306550,-70940.443115
4933.590001,592.164754,6809.894666,-71859.757712
4933.592549,5181.441594,888.247130,-76609.549800
4933.595097,-15544.324782,148.041188,-73698.386908
4933.597645,18209.066173,-5477.523971,-79673.931792
4933.600193,-23686.590144,19985.560434,-63279.488135
4933.602741,10214.842000,-5921.647536,-80746.465489
4933.605289,-7550.100608,11251.130318,-73238.729609
4933.607837,-27831.743419,22946.384202,-68948.594820
4933.610384,12583.501014,-2220.617826,-86722.010374
4933.612932,-15248.242405,11103.089130,-68795.375720
4933.615480,-4145.153275,4293.194464,-73545.167808
4933.618028,1628.453072,-4293.194464,-80133.589091
4933.620576,-14211.954086,12731.542202,-71400.100414
4933.623124,-592.164754,14656.077652,-70021.128517
4933.625672,-1480.411884,5033.400406,-80133.589091
4933.628220,-12139.377449,9474.636058,-78141.740796
4933.630768,-296.082377,740.205942,-73238.729609
4933.633316,-5921.647536,3404.947333,-74617.701505
4933.635864,-3256.906145,9622.677246,-74464.482406
4933.638411,-2664.741391,3256.906145,-75690.235202
4933.640959,-8290.306550,4737.318029,-75230.577904
4933.643507,-13175.665768,7105.977043,-74464.482406
4933.646055,-8142.265362,12879.583391,-78448.178995
4933.648603,-4885.359217,11399.171507,-77528.864398
4933.651151,296.082377,7550.100608,-80593.246390
4933.653699,-6217.729913,6957.935855,-77988.521696
4933.656247,-3997.112087,-1924.535449,-81512.560987
4933.658795,-6661.853478,5921.647536,-72012.976812
4933.661343,-14952.160028,15248.242405,-70174.347617
4933.663891,8882.471304,-3108.864956,-76915.987999
4933.666438,-1776.494261,10658.965565,-73391.948708
4933.668986,-15100.201217,9622.677246,-70480.785816
4933.671534,19541.436869,-13471.748144,-83504.409282
4933.674082,-12583.501014,10362.883188,-63739.145434
4933.676630,11399.171507,-9622.677246,-74158.044206
4933.679178,-592.164754,-4145.153275,-79061.055394
4933.681726,-6069.688724,8290.306550,-70787.224015
4933.684274,4441.235652,-3404.947333,-81665.780087
4933.686822,-6365.771101,148.041188,-80286.808190
4933.689370,-2220.617826,2516.700203,-75996.673402
4933.691918,740.205942,-2368.659014,-77988.521696
4933.694467,6217.729913,-4293.194464,-76609.549800
4933.697016,1036.288319,3256.906145,-71706.538613
4933.699565,-5773.606348,11695.253884,-70021.128517
4933.702114,148.041188,-148.041188,-78754.617194
4933.704663,-6217.729913,-1480.411884,-74924.139704
4933.707212,1184.329507,8734.430116,-68488.937521
4933.709761,11103.089130,-1776.494261,-74004.825107
4933.712310,-1184.329507,-5625.565159,-75996.673402
4933.714860,5773.606348,-2664.741391,-76762.768900
4933.717409,-3256.906145,-3256.906145,-76609.549800
4933.719958,1480.411884,-3701.029710,-80133.589091
4933.722507,1628.453072,2516.700203,-76762.768900
4933.725056,-9474.636058,8290.306550,-76609.549800
4933.727605,13619.789333,-1628.453072,-80593.246390
4933.730154,-5921.647536,4885.359217,-72166.195912
4933.732703,-14211.954086,4145.153275,-73391.948708
4933.735252,12139.377449,-592.164754,-81052.903688
4933.737802,-27387.619854,15248.242405,-69561.471218
4933.740351,11103.089130,-1332.370696,-83197.971083
4933.742900,-14804.118840,21317.931130,-70787.224015
4933.745449,-9030.512492,14804.118840,-70021.128517
4933.747998,7105.977043,-9326.594869,-82585.094684
4933.750547,-17912.983796,11843.295072,-68795.375720
4933.753096,-3404.947333,5033.400406,-74004.825107
4933.755645,1776.494261,-2516.700203,-80286.808190
4933.758194,-16284.530724,20577.725188,-69561.471218
4933.760744,-1776.494261,13027.624579,-72932.291410
4933.763293,-10955.047942,4293.194464,-77375.645298
4933.765842,-7994.224174,-3552.988522,-79061.055394
4933.768391,-1036.288319,4293.194464,-72625.853210
4933.770940,-7550.100608,11695.253884,-72012.976812
4933.773489,-888.247130,2516.700203,-79061.055394
4933.776038,-15100.201217,5773.606348,-77069.207099
4933.778587,-13619.789333,16284.530724,-75383.797003
4933.781136,-2516.700203,7994.224174,-79673.931792
4933.783686,-11991.336260,14211.954086,-77835.302597
4933.786235,2516.700203,4885.359217,-75843.454302
4933.788784,-3849.070898,-4441.235652,-79980.369991
4933.791333,-11547.212695,11103.089130,-70021.128517
4933.793882,-11695.253884,6661.853478,-73238.729609
4933.796431,9030.512492,-4885.359217,-81052.903688
4933.798980,6365.771101,8438.347739,-75996.673402
4933.801529,-20725.766376,12583.501014,-67109.965625
4933.804078,21465.972318,-17764.942608,-89173.515967
4933.806627,-7698.141797,7698.141797,-67569.622924
4933.809175,-2072.576638,-4737.318029,-71400.100414
4933.811724,9030.512492,-5181.441594,-79673.931792
4933.814273,-4589.276840,8586.388927,-69101.813920
4933.816822,-592.164754,740.205942,-79520.712692
4933.819371,3997.112087,-3404.947333,-82738.313784
4933.821920,-11547.212695,6957.935855,-71400.100414
4933.824469,7846.182985,1332.370696,-72779.072310
4933.827018,4145.153275,-7846.182985,-79980.369991
4933.829567,-2516.700203,4589.276840,-76762.768900
4933.832116,2368.659014,3849.070898,-79061.055394
4933.834665,-8882.471304,1332.370696,-77528.864398
4933.837213,-7550.100608,1480.411884,-76609.549800
4933.839762,5625.565159,3997.112087,-73545.167808
4933.842311,-2072.576638,-3256.906145,-74464.482406
4933.844860,10066.800811,-5329.482782,-78601.398095
4933.847409,-2072.576638,-7402.059420,-79367.493593
4933.849958,592.164754,-5921.647536,-80746.465489
4933.852507,1776.494261,3997.112087,-77682.083497
4933.855056,-2812.782580,888.247130,-76762.768900
4933.857605,6069.688724,7994.224174,-74004.825107
4933.860154,-1036.288319,-1036.288319,-70634.004916
4933.862703,-444.123565,2516.700203,-74158.044206
4933.865251,-16136.489536,10510.924376,-68488.937521
4933.867800,12287.418637,-6217.729913,-83197.971083
4933.870349,-17764.942608,14508.036463,-73238.729609
4933.872898,-22502.260637,20873.807564,-65424.555529
4933.875447,5773.606348,740.205942,-85189.819378
4933.877996,-11695.253884,12879.583391,-68795.375720
4933.880545,-9622.677246,1184.329507,-74464.482406
4933.883094,-444.123565,-5033.400406,-82125.437386
4933.885643,-6513.812290,10362.883188,-71553.319513
4933.888192,-7698.141797,6809.894666,-77988.521696
4933.890741,0.000000,6365.771101,-81972.218286
4933.893289,-13471.748144,14359.995275,-72012.976812
4933.895838,-1480.411884,3997.112087,-75383.797003
4933.898388,1628.453072,-2960.823768,-77222.426198
4933.900937,-7550.100608,6365.771101,-72625.853210
4933.903487,2220.617826,9918.759623,-71400.100414
4933.906036,-6069.688724,3997.112087,-75843.454302
4933.908586,-18653.189738,11991.336260,-75230.577904
4933.911135,740.205942,9918.759623,-81052.903688
4933.913685,-9770.718434,13471.748144,-78907.836294
4933.916234,148.041188,4737.318029,-75996.673402
4933.918784,-2220.617826,-1480.411884,-76303.111601
4933.921333,-13175.665768,6069.688724,-74617.701505
4933.923883,-9030.512492,6513.812290,-78294.959896
4933.926432,6069.688724,-1480.411884,-79673.931792
4933.928982,-13027.624579,21762.054695,-64658.460031
4933.931531,5625.565159,-4293.194464,-77682.083497
4933.934081,6069.688724,-296.082377,-76915.987999
4933.936630,-13471.748144,10807.006753,-62973.049936
4933.939180,13323.706956,-19393.395680,-88254.201370
4933.941729,4589.276840,-2812.782580,-78907.836294
4933.944279,-5181.441594,12139.377449,-67416.403824
4933.946828,1036.288319,-296.082377,-77528.864398
4933.949378,888.247130,-148.041188,-77682.083497
4933.951927,-5329.482782,8586.388927,-70634.004916
4933.954477,3552.988522,2664.741391,-73851.606007
4933.957026,6513.812290,-5625.565159,-79367.493593
4933.959576,-5033.400406,5773.606348,-74924.139704
4933.962125,-4441.235652,7698.141797,-75077.358804
4933.964675,-1184.329507,-2368.659014,-77988.521696
4933.967224,-6661.853478,3997.112087,-73238.729609
4933.969774,4589.276840,8142.265362,-71859.757712
4933.972323,3404.947333,-6809.894666,-79214.274493
4933.974873,5921.647536,-5329.482782,-80286.808190
4933.977422,-2516.700203,-5033.400406,-75537.016103
4933.979972,-9622.677246,-296.082377,-73545.167808
4933.982521,4441.235652,296.082377,-78294.959896
4933.985071,-1776.494261,11547.212695,-71553.319513
4933.987620,6957.935855,1924.535449,-74311.263306
4933.990170,-6069.688724,6809.894666,-74311.263306
4933.992719,-12583.501014,-5477.523971,-77835.302597
4933.995269,3552.988522,4737.318029,-74617.701505
4933.997818,-18061.024985,14359.995275,-64964.898230
4934.000369,13175.665768,-3552.988522,-84576.942979
4934.002920,-19245.354492,28127.825796,-65118.117330
4934.005470,-6957.935855,13915.871710,-72932.291410
4934.008021,1184.329507,-2516.700203,-80899.684589
4934.010571,-15100.201217,10214.842000,-68488.937521
4934.013122,740.205942,2072.576638,-77682.083497
4934.015673,4885.359217,-1036.288319,-78448.178995
4934.018223,-14211.954086,12287.418637,-71400.100414
4934.020774,-7254.018232,13619.789333,-74004.825107
4934.023324,1480.411884,740.205942,-76609.549800
4934.025875,-9178.553681,1776.494261,-70480.785816
4934.028426,-4145.153275,9622.677246,-70327.566716
4934.030976,-1332.370696,2220.617826,-79673.931792
4934.033527,-8586.388927,5181.441594,-79980.369991
4934.036077,-9030.512492,13027.624579,-73391.948708
4934.038628,-15988.448347,11991.336260,-74311.263306
4934.041179,-6365.771101,17764.942608,-73851.606007
4934.043729,-3108.864956,8438.347739,-71706.538613
4934.046280,-2812.782580,2220.617826,-74770.920605
4934.048830,-3256.906145,2664.741391,-76149.892501
4934.051381,-18949.272115,8586.388927,-76149.892501
4934.053932,8586.388927,-3997.112087,-82891.532884
4934.056482,-2220.617826,17024.736666,-68182.499322
4934.059033,-7550.100608,5329.482782,-72166.195912
4934.061583,18801.230927,-7105.977043,-79061.055394
4934.064134,-19837.519246,11251.130318,-61900.516238
4934.066685,12435.459826,-14211.954086,-84117.285680
4934.069235,-888.247130,-2664.741391,-74158.044206
4934.071786,-6365.771101,10807.006753,-66497.089226
4934.074337,10658.965565,-1776.494261,-75843.454302
4934.076887,-6661.853478,8142.265362,-69714.690318
4934.079438,-5477.523971,8290.306550,-70940.443115
4934.081988,7550.100608,-6217.729913,-78754.617194
4934.084539,-1480.411884,-5921.647536,-80593.246390
4934.087090,-1332.370696,3849.070898,-75843.454302
4934.089641,2368.659014,6069.688724,-76303.111601
4934.092191,-7402.059420,4145.153275,-73698.386908
4934.094742,1776.494261,3108.864956,-71859.757712
4934.097293,-2812.782580,4441.235652,-72625.853210
4934.099843,9178.553681,-1184.329507,-76456.330700
4934.102394,2960.823768,-3849.070898,-73085.510509
4934.104945,-3256.906145,-4885.359217,-71553.319513
4934.107496,-4145.153275,592.164754,-73698.386908
4934.110046,148.041188,888.247130,-75996.673402
4934.112597,-2516.700203,14211.954086,-69867.909418
4934.115148,9770.718434,4589.276840,-72166.195912
4934.117698,-11399.171507,5921.647536,-72779.072310
4934.120249,-21762.054695,3552.988522,-72012.976812
4934.122800,10807.006753,-10214.842000,-86109.133975
4934.125351,-21910.095883,22650.301825,-68948.594820
4934.127901,8142.265362,1628.453072,-80593.246390
4934.130452,-11103.089130,16432.571912,-74770.920605
4934.133003,-13767.830521,20577.725188,-63585.926334
4934.135553,7550.100608,-10807.006753,-83197.971083
4934.138104,-12731.542202,10807.006753,-70480.785816
4934.140655,-4589.276840,6809.894666,-69561.471218
4934.143205,-1628.453072,-1332.370696,-78754.617194
4934.145756,-11251.130318,15544.324782,-69867.909418
4934.148307,-3108.864956,14508.036463,-72472.634111
4934.150858,-4145.153275,3404.947333,-77528.864398
4934.153408,3256.906145,-1628.453072,-77835.302597
4934.155959,-6809.894666,8438.347739,-72319.415011
4934.158510,-4737.318029,9622.677246,-73085.510509
4934.161060,-13471.748144,2368.659014,-77835.302597
4934.163611,-11103.089130,13619.789333,-74158.044206
4934.166162,-9030.512492,16728.654289,-75690.235202
4934.168713,-3849.070898,12287.418637,-77988.521696
4934.171263,-6069.688724,6513.812290,-74158.044206
4934.173814,-3552.988522,-3849.070898,-79827.150892
4934.176365,-8586.388927,3552.988522,-75077.358804
4934.178915,-6809.894666,13027.624579,-72012.976812
4934.181466,-9474.636058,1924.535449,-78601.398095
4934.184012,18357.107362,3108.864956,-81818.999186
4934.186563,-22946.384202,19245.354492,-63739.145434
4934.189114,-5329.482782,-7550.100608,-79214.274493
4934.191666,14508.036463,-20429.683999,-91778.240660
4934.194217,-11547.212695,9622.677246,-66956.746525
4934.196769,7846.182985,-5773.606348,-80286.808190
4934.199320,7994.224174,0.000000,-75690.235202
4934.201871,-7698.141797,13619.789333,-69867.909418
4934.204423,740.205942,2516.700203,-77835.302597
4934.206974,1036.288319,-592.164754,-75230.577904
4934.209526,-8586.388927,3108.864956,-68182.499322
4934.212077,9178.553681,-5477.523971,-74464.482406
4934.214628,-6809.894666,6217.729913,-74311.263306
4934.217180,-1184.329507,8586.388927,-72625.853210
4934.219731,2072.576638,-444.123565,-77069.207099
4934.222283,-5921.647536,3256.906145,-75383.797003
4934.224834,11843.295072,-3849.070898,-78907.836294
4934.227385,3256.906145,-6809.894666,-75383.797003
4934.229937,2812.782580,-9030.512492,-75690.235202
4934.232488,-6217.729913,-1036.288319,-74311.263306
4934.235039,-444.123565,1776.494261,-75537.016103
4934.237591,740.205942,10066.800811,-75383.797003
4934.240142,5921.647536,3404.947333,-73085.510509
4934.242694,-5181.441594,7402.059420,-73085.510509
4934.245245,-8142.265362,-8734.430116,-79367.493593
4934.247796,-444.123565,444.123565,-80286.808190
4934.250348,-19541.436869,13471.748144,-70174.347617
4934.252899,13471.748144,-1480.411884,-86415.572174
4934.255451,-19985.560434,24278.754898,-68182.499322
4934.258002,-7994.224174,7698.141797,-65730.993728
4934.260553,1480.411884,-9178.553681,-80440.027290
4934.263105,-10510.924376,13471.748144,-69714.690318
4934.265656,-5773.606348,6365.771101,-71859.757712
4934.268207,2368.659014,-296.082377,-78907.836294
4934.270759,-13767.830521,17912.983796,-66956.746525
4934.273310,-8734.430116,12731.542202,-71706.538613
4934.275862,-296.082377,3404.947333,-77835.302597
4934.278413,296.082377,3256.906145,-71706.538613
4934.280964,-7550.100608,12139.377449,-72012.976812
4934.283516,1480.411884,4293.194464,-79214.274493
4934.286067,-20873.807564,7254.018232,-74770.920605
4934.288618,-10955.047942,13027.624579,-73698.386908
4934.291170,-8882.471304,11399.171507,-80440.027290
4934.293721,-2220.617826,12879.583391,-73545.167808
4934.296272,-5033.400406,7105.977043,-70174.347617
4934.298824,-6661.853478,3552.988522,-70940.443115
4934.301375,-16432.571912,5329.482782,-72932.291410
4934.303926,8438.347739,-888.247130,-77988.521696
4934.306478,-14952.160028,20281.642811,-68335.718422
4934.309029,11695.253884,-444.123565,-79980.369991
4934.311580,1776.494261,7550.100608,-74158.044206
4934.314132,-13175.665768,2072.576638,-71093.662214
4934.316683,18209.066173,-20577.725188,-89939.611465
4934.319234,-15544.324782,5181.441594,-70174.347617
4934.321786,7698.141797,2072.576638,-75230.577904
4934.324337,7105.977043,1332.370696,-75383.797003
4934.326888,-6957.935855,12879.583391,-69101.813920
4934.329440,-2220.617826,8438.347739,-71400.100414
4934.331991,1480.411884,-3552.988522,-78448.178995
4934.334542,-3108.864956,-5329.482782,-77375.645298
4934.337094,0.000000,1332.370696,-72932.291410
4934.339645,-5773.606348,4441.235652,-78141.740796
4934.342196,1184.329507,2960.823768,-77375.645298
4934.344748,-2516.700203,4441.235652,-72779.072310
4934.347299,3701.029710,3552.988522,-75230.577904
4934.349850,10807.006753,-7105.977043,-78754.617194
4934.352402,-1184.329507,-1332.370696,-69408.252119
4934.354953,3849.070898,-7698.141797,-73391.948708
4934.357504,-1332.370696,-2220.617826,-76609.549800
4934.360055,-14952.160028,10658.965565,-68795.375720
4934.362607,15544.324782,1628.453072,-78601.398095
4934.365158,-7105.977043,1184.329507,-79520.712692
4934.367709,-148.041188,-5625.565159,-76915.987999
4934.370261,-8290.306550,9178.553681,-71706.538613
4934.372812,-23390.507767,15396.283594,-67722.842023
4934.375363,16432.571912,-740.205942,-87028.448573
4934.377915,-16876.695478,24574.837274,-68642.156621
4934.380466,-13323.706956,12583.501014,-72932.291410
4934.383017,6513.812290,-3849.070898,-81206.122788
4934.385569,-23390.507767,13175.665768,-69867.909418
4934.388120,5329.482782,1184.329507,-78294.959896
4934.390672,-740.205942,1776.494261,-77222.426198
4934.393223,-14804.118840,14508.036463,-68948.594820
4934.395775,-3849.070898,9622.677246,-73085.510509
4934.398327,-8734.430116,7402.059420,-72472.634111
4934.400878,2812.782580,6217.729913,-70480.785816
4934.403430,-1480.411884,6365.771101,-73238.729609
4934.405981,-7254.018232,6513.812290,-77375.645298
4934.408533,-2220.617826,6661.853478,-79367.493593
4934.411084,-18653.189738,19541.436869,-66650.308326
4934.413636,-8882.471304,18209.066173,-70787.224015
4934.416188,2220.617826,11991.336260,-71400.100414
4934.418739,-9474.636058,4441.235652,-71553.319513
4934.421291,-2664.741391,5033.400406,-73085.510509
4934.423842,-19541.436869,8586.388927,-72779.072310
4934.426394,5477.523971,-4293.194464,-80593.246390
4934.428945,-2220.617826,16728.654289,-69714.690318
4934.431497,-5477.523971,6809.894666,-74004.825107
4934.434049,20577.725188,-4441.235652,-80286.808190
4934.436600,-19097.313304,10955.047942,-59142.572446
4934.439152,10066.800811,-17172.777854,-82585.094684
4934.441703,15396.283594,-9178.553681,-83351.190182
4934.444255,-9622.677246,8586.388927,-71553.319513
4934.446807,2960.823768,3256.906145,-77222.426198
4934.449358,2812.782580,-2960.823768,-80593.246390
4934.451910,-8734.430116,9030.512492,-73851.606007
4934.454461,6217.729913,444.123565,-74158.044206
4934.457013,-4293.194464,-5477.523971,-76456.330700
4934.459564,-2960.823768,7105.977043,-72319.415011
4934.462116,1776.494261,7994.224174,-73085.510509
4934.464668,-4885.359217,3997.112087,-76609.549800
4934.467219,2220.617826,2960.823768,-72625.853210
4934.469771,-1480.411884,2812.782580,-71706.538613
4934.472322,8586.388927,-10658.965565,-79980.369991
4934.474874,5477.523971,-14804.118840,-83044.751983
4934.477425,-12287.418637,-740.205942,-76915.987999
4934.479977,0.000000,2516.700203,-76915.987999
4934.482529,8586.388927,2960.823768,-78601.398095
4934.485080,-3108.864956,9326.594869,-68642.156621
4934.487632,10807.006753,1036.288319,-72012.976812
4934.490184,-28423.908173,10214.842000,-67416.403824
4934.492736,13175.665768,-9770.718434,-84270.504780
4934.495288,-15396.283594,17912.983796,-68948.594820
4934.497841,-6957.935855,11695.253884,-77069.207099
4934.500393,3849.070898,7550.100608,-81512.560987
4934.502945,-27239.578666,21317.931130,-62973.049936
4934.505497,7994.224174,-7402.059420,-81972.218286
4934.508050,-11103.089130,6661.853478,-74004.825107
4934.510602,-18505.148550,12879.583391,-67876.061123
4934.513154,4737.318029,2072.576638,-80286.808190
4934.515706,-6513.812290,7402.059420,-77835.302597
4934.518259,-11547.212695,11695.253884,-73085.510509
4934.520811,-1184.329507,2664.741391,-72779.072310
4934.523363,-5329.482782,1332.370696,-78294.959896
4934.525915,-1480.411884,9030.512492,-75996.673402
4934.528468,-11251.130318,9918.759623,-70634.004916
4934.531020,-15248.242405,7846.182985,-72319.415011
4934.533572,-5329.482782,16432.571912,-70327.566716
4934.536124,-3108.864956,15100.201217,-73851.606007
4934.538677,4293.194464,3701.029710,-78754.617194
4934.541229,-10510.924376,4885.359217,-75690.235202
4934.543781,-13619.789333,296.082377,-76915.987999
4934.546333,7402.059420,296.082377,-78601.398095
4934.548886,-14359.995275,18061.024985,-64811.679131
4934.551438,9474.636058,-888.247130,-76762.768900
4934.553990,11251.130318,2960.823768,-74311.263306
4934.556542,-19541.436869,12287.418637,-61134.420740
4934.559095,15988.448347,-19245.354492,-85189.819378
4934.561647,-8734.430116,1332.370696,-70327.566716
4934.564199,592.164754,7105.977043,-71400.100414
4934.566751,8882.471304,-5181.441594,-79520.712692
4934.569304,-8142.265362,9326.594869,-72012.976812
4934.571856,-296.082377,7698.141797,-70021.128517
4934.574408,1776.494261,-5181.441594,-79980.369991
4934.576960,-592.164754,1628.453072,-74770.920605
4934.579513,1036.288319,2516.700203,-68335.718422
4934.582065,-1628.453072,9178.553681,-73545.167808
4934.584617,-1776.494261,-1184.329507,-78754.617194
4934.587169,-2368.659014,1332.370696,-73851.606007
4934.589721,2812.782580,3108.864956,-71859.757712
4934.592273,12879.583391,-9030.512492,-78141.740796
4934.594825,-2812.782580,-10066.800811,-76609.549800
4934.597377,-3404.947333,-3108.864956,-74004.825107
4934.599929,-1332.370696,-296.082377,-75996.673402
4934.602481,3552.988522,6809.894666,-77375.645298
4934.605033,6809.894666,5033.400406,-72319.415011
4934.607585,3701.029710,5181.441594,-71706.538613
4934.610137,-23982.672521,9770.718434,-67416.403824
4934.612689,7254.018232,-13027.624579,-86415.572174
4934.615241,-15692.365970,21465.972318,-75690.235202
4934.617793,-14804.118840,25907.207970,-65424.555529
4934.620344,4441.235652,592.164754,-83351.190182
4934.622896,-17024.736666,14063.912898,-69867.909418
4934.625448,-9474.636058,2664.741391,-70787.224015
4934.628000,148.041188,-148.041188,-78601.398095
4934.630552,-6365.771101,11843.295072,-69561.471218
4934.633104,444.123565,3108.864956,-78754.617194
4934.635656,-12879.583391,7550.100608,-79214.274493
4934.638208,-4293.194464,8142.265362,-75383.797003
4934.640760,-5625.565159,-1036.288319,-77528.864398
4934.643312,2812.782580,2812.782580,-76762.768900
4934.645864,-9178.553681,8438.347739,-74311.263306
4934.648415,-12435.459826,6365.771101,-75077.358804
4934.650967,-7254.018232,7550.100608,-75996.673402
4934.653519,-10955.047942,18949.272115,-74770.920605
4934.656071,740.205942,7698.141797,-76456.330700
4934.658623,-3997.112087,-592.164754,-80286.808190
4934.661175,-7994.224174,4441.235652,-74158.044206
4934.663727,-10510.924376,9030.512492,-72166.195912
4934.666279,-3256.906145,-6069.688724,-80746.465489
4934.668831,4293.194464,8882.471304,-76609.549800
4934.671383,-12583.501014,11843.295072,-67722.842023
4934.673935,21317.931130,-16284.530724,-87641.324971
4934.676487,-13471.748144,9326.594869,-65118.117330
4934.679038,-148.041188,-5625.565159,-74464.482406
4934.681590,14359.995275,-7402.059420,-79367.493593
4934.684142,-2072.576638,9622.677246,-70174.347617
4934.686694,1184.329507,1184.329507,-73851.606007
4934.689246,8438.347739,-5181.441594,-82125.437386
4934.691798,-592.164754,2664.741391,-72166.195912
4934.694350,-148.041188,4737.318029,-70174.347617
4934.696903,1776.494261,-1628.453072,-74311.263306
4934.699455,-5033.400406,4441.235652,-74464.482406
4934.702007,-444.123565,5773.606348,-72319.415011
4934.704559,-148.041188,-444.123565,-74617.701505
4934.707112,-296.082377,3701.029710,-75690.235202
4934.709664,12435.459826,-2516.700203,-78601.398095
4934.712216,1776.494261,-8290.306550,-75537.016103
4934.714768,-4589.276840,1332.370696,-70634.004916
4934.717321,-296.082377,-5477.523971,-76609.549800
4934.719873,-6513.812290,10807.006753,-74924.139704
4934.722425,11399.171507,4293.194464,-73238.729609
4934.724977,2960.823768,8290.306550,-73545.167808
4934.727530,-25907.207970,8586.388927,-69714.690318
4934.730082,4885.359217,-10955.047942,-85955.914876
4934.732634,-24130.713709,18949.272115,-70634.004916
4934.735186,10658.965565,2516.700203,-83964.066581
4934.737739,-4885.359217,14656.077652,-77069.207099
4934.740291,-21465.972318,20873.807564,-65424.555529
4934.742843,5773.606348,-7994.224174,-81818.999186
4934.745395,-15396.283594,12435.459826,-69408.252119
4934.747948,-6217.729913,10362.883188,-68948.594820
4934.750500,5181.441594,1480.411884,-76456.330700
4934.753052,-15544.324782,13027.624579,-70787.224015
4934.755604,-888.247130,9622.677246,-75077.358804
4934.758157,-7550.100608,1332.370696,-74464.482406
4934.760709,-4145.153275,3404.947333,-76303.111601
4934.763261,-2220.617826,5773.606348,-75077.358804
4934.765813,-18061.024985,8734.430116,-74617.701505
4934.768366,-8142.265362,10807.006753,-78448.178995
4934.770918,-15100.201217,17468.860231,-74004.825107
4934.773470,8586.388927,9178.553681,-77222.426198
4934.776022,-5329.482782,8734.430116,-73391.948708
4934.778575,-6069.688724,3404.947333,-74464.482406
4934.781127,-15692.365970,8882.471304,-73085.510509
4934.783679,-4293.194464,-888.247130,-79520.712692
4934.786231,9474.636058,8142.265362,-77835.302597
4934.788784,-10214.842000,17616.901420,-66650.308326
4934.791336,1776.494261,-13027.624579,-81359.341888
4934.793888,296.082377,-14359.995275,-85649.476676
4934.796441,-6809.894666,5477.523971,-66956.746525
4934.798994,5921.647536,-2368.659014,-76303.111601
4934.801547,10066.800811,2812.782580,-76303.111601
4934.804100,-7846.182985,8290.306550,-72012.976812
4934.806653,-2368.659014,2812.782580,-74004.825107
4934.809206,1628.453072,-4737.318029,-74311.263306
4934.811758,-444.123565,3849.070898,-71400.100414
4934.814311,3404.947333,5181.441594,-73085.510509
4934.816864,-7254.018232,4885.359217,-75843.454302
4934.819417,-7254.018232,3552.988522,-75383.797003
4934.821970,2516.700203,1332.370696,-73545.167808
4934.824523,9326.594869,-1924.535449,-75690.235202
4934.827076,8438.347739,-8734.430116,-75996.673402
4934.829629,-3997.112087,-6809.894666,-76609.549800
4934.832182,-6809.894666,-1628.453072,-78294.959896
4934.834734,2220.617826,4589.276840,-78907.836294
4934.837287,3404.947333,1628.453072,-77222.426198
4934.839840,296.082377,8882.471304,-74924.139704
4934.842393,3997.112087,-9030.512492,-80593.246390
4934.844946,-15840.407159,11547.212695,-70480.785816
4934.847499,-14508.036463,7846.182985,-68029.280222
4934.850052,12435.459826,-740.205942,-83657.628382
4934.852605,-16136.489536,29460.196492,-64352.021832
4934.855158,3552.988522,2220.617826,-80593.246390
4934.857710,-12287.418637,3849.070898,-79367.493593
4934.860263,-15396.283594,8882.471304,-72012.976812
4934.862816,4589.276840,1628.453072,-79520.712692
4934.865369,-1628.453072,2516.700203,-81665.780087
4934.867922,-11251.130318,14063.912898,-68488.937521
4934.870475,-8586.388927,12583.501014,-69408.252119
4934.873028,888.247130,-740.205942,-78141.740796
4934.875581,-2220.617826,1036.288319,-75077.358804
4934.878134,-7846.182985,12583.501014,-69408.252119
4934.880686,-4885.359217,3552.988522,-75996.673402
4934.883239,-24426.796086,12879.583391,-70327.566716
4934.885792,148.041188,15100.201217,-73391.948708
4934.888345,-5181.441594,8290.306550,-77988.521696
4934.890898,-444.123565,6957.935855,-80286.808190
4934.893451,-4441.235652,6069.688724,-76303.111601
4934.896004,-24574.837274,8586.388927,-73391.948708
4934.898556,-6069.688724,3256.906145,-73391.948708
4934.901109,19689.478057,1332.370696,-79061.055394
4934.903661,-21465.972318,17912.983796,-64198.802732
4934.906214,21169.889941,-17616.901420,-85955.914876
4934.908766,-11103.089130,296.082377,-71246.881314
4934.911319,-7254.018232,2220.617826,-70327.566716
4934.913871,20281.642811,-13619.789333,-85496.257577
4934.916424,-7402.059420,7698.141797,-75383.797003
4934.918976,3404.947333,3701.029710,-77835.302597
4934.921528,3849.070898,-5033.400406,-84576.942979
4934.924081,-3997.112087,5033.400406,-74464.482406
4934.926633,6957.935855,148.041188,-70940.443115
4934.929186,-5181.441594,2960.823768,-74158.044206
4934.931738,-148.041188,3404.947333,-76915.987999
4934.934291,-3404.947333,592.164754,-74311.263306
4934.936843,-4441.235652,3849.070898,-73545.167808
4934.939396,9918.759623,-1480.411884,-76303.111601
4934.941948,13915.871710,-10214.842000,-79367.493593
4934.944501,-7105.977043,-5329.482782,-76149.892501
4934.947053,1036.288319,-7846.182985,-78448.178995
4934.949606,-10658.965565,2960.823768,-78294.959896
4934.952158,14359.995275,2960.823768,-79520.712692
4934.954710,-4589.276840,5477.523971,-78294.959896
4934.957263,8734.430116,-7402.059420,-79827.150892
4934.959815,-17764.942608,17320.819043,-65271.336430
4934.962368,-19837.519246,4293.194464,-69867.909418
4934.964920,17764.942608,1480.411884,-80899.684589
4934.967473,-26499.372724,31236.690752,-61134.420740
4934.970025,8734.430116,13915.871710,-74770.920605
4934.972578,2960.823768,-5773.606348,-83504.409282
4934.975130,-26943.496289,13619.789333,-67722.842023
4934.977683,6069.688724,-740.205942,-79520.712692
4934.980235,1480.411884,5181.441594,-77528.864398
4934.982788,-12435.459826,15988.448347,-69867.909418
4934.985340,-1184.329507,5625.565159,-73851.606007
4934.987893,-11695.253884,1332.370696,-75383.797003
4934.990445,2812.782580,6661.853478,-71093.662214
4934.992997,-5033.400406,7994.224174,-72012.976812
4934.995550,-11399.171507,3849.070898,-82738.313784
4934.998102,-14063.912898,16728.654289,-73238.729609
4935.000655,-14508.036463,14063.912898,-71553.319513
4935.003207,9770.718434,6513.812290,-77375.645298
4935.005760,-10214.842000,8290.306550,-74158.044206
4935.008313,-18505.148550,3997.112087,-74004.825107
4935.010865,4737.318029,-2072.576638,-81359.341888
4935.013418,-14804.118840,13175.665768,-72779.072310
4935.015970,13323.706956,-3108.864956,-81972.218286
4935.018523,-1184.329507,13619.789333,-69867.909418
4935.021075,-3701.029710,-6513.812290,-76762.768900
4935.023628,5033.400406,-14211.954086,-84270.504780
4935.026180,-8586.388927,7105.977043,-65118.117330
4935.028733,8882.471304,-4441.235652,-79520.712692
4935.031286,5477.523971,4737.318029,-72472.634111
4935.033838,-5773.606348,7994.224174,-72472.634111
4935.036391,3404.947333,2220.617826,-76303.111601
4935.038943,-1924.535449,-2664.741391,-75690.235202
4935.041496,-4589.276840,592.164754,-75537.016103
4935.044048,3404.947333,4737.318029,-74770.920605
4935.046601,-8290.306550,6513.812290,-74770.920605
4935.049153,0.000000,0.000000,-77222.426198
4935.051706,3997.112087,1332.370696,-73085.510509
4935.054258,10807.006753,-5921.647536,-81206.122788
4935.056811,4589.276840,-9622.677246,-79673.931792
4935.059364,-8882.471304,-148.041188,-72779.072310
4935.061916,-1036.288319,-2220.617826,-77222.426198
4935.064469,3256.906145,3997.112087,-76149.892501
4935.067021,2368.659014,6217.729913,-71400.100414
4935.069574,14508.036463,5625.565159,-72472.634111
4935.072126,-31976.896694,16876.695478,-63739.145434
4935.074679,12287.418637,-7105.977043,-84883.381178
4935.077231,-25611.125593,17616.901420,-75843.454302
4935.079784,-21169.889941,20725.766376,-65884.212828
4935.082337,13619.789333,592.164754,-86109.133975
4935.084889,-18949.272115,14656.077652,-68335.718422
4935.087442,-8586.388927,-148.041188,-76303.111601
4935.089994,148.041188,2072.576638,-76609.549800
4935.092547,-9622.677246,14952.160028,-68335.718422
4935.095099,4885.359217,7994.224174,-74464.482406
4935.097652,-7402.059420,7994.224174,-77222.426198
4935.100204,-11843.295072,4441.235652,-77069.207099
4935.102757,1776.494261,3108.864956,-73085.510509
4935.105309,-6069.688724,8882.471304,-71093.662214
4935.107861,-5033.400406,7254.018232,-73698.386908
4935.110414,-19689.478057,14952.160028,-70174.347617
4935.112966,-5329.482782,14656.077652,-75383.797003
4935.115518,3256.906145,8734.430116,-79214.274493
4935.118071,-9178.553681,6957.935855,-75230.577904
4935.120623,-7254.018232,2516.700203,-77528.864398
4935.123175,-7994.224174,6217.729913,-72012.976812
4935.125728,-15100.201217,6513.812290,-71400.100414
4935.128280,24574.837274,-3701.029710,-85343.038477
4935.130832,-21910.095883,17172.777854,-67416.403824
4935.133385,15988.448347,-16580.613101,-88254.201370
4935.135937,-4145.153275,-4737.318029,-75996.673402
4935.138489,-12287.418637,5625.565159,-65730.993728
4935.141042,18357.107362,-14063.912898,-82891.532884
4935.143594,-444.123565,9178.553681,-72319.415011
4935.146146,-4737.318029,8586.388927,-69561.471218
4935.148699,2664.741391,1036.288319,-76303.111601
4935.151251,-2220.617826,-5921.647536,-77835.302597
4935.153803,-148.041188,148.041188,-72012.976812
4935.156356,4441.235652,3849.070898,-71859.757712
4935.158908,-5773.606348,5477.523971,-77222.426198
4935.161460,1628.453072,1036.288319,-76456.330700
4935.164013,-1480.411884,296.082377,-75690.235202
4935.166565,18209.066173,-2516.700203,-78448.178995
4935.169117,-3108.864956,-5477.523971,-72012.976812
4935.171670,-2664.741391,-2516.700203,-71706.538613
4935.174222,-888.247130,444.123565,-74158.044206
4935.176774,-2664.741391,5181.441594,-74770.920605
4935.179327,7254.018232,6217.729913,-72472.634111
4935.181879,7846.182985,1924.535449,-74158.044206
4935.184431,-24130.713709,21317.931130,-65730.993728
4935.186984,-9178.553681,-3849.070898,-76915.987999
4935.189536,1924.535449,7105.977043,-76915.987999
4935.192088,-17912.983796,24426.796086,-67569.622924
4935.194641,10955.047942,-2812.782580,-88100.982270
4935.197193,-18653.189738,14656.077652,-72319.415011
4935.199745,-12139.377449,3849.070898,-71400.100414
4935.202298,1924.535449,-5033.400406,-79214.274493
4935.204850,-7846.182985,5773.606348,-77988.521696
4935.207402,-8290.306550,14656.077652,-69714.690318
4935.209954,-6809.894666,6809.894666,-75383.797003
4935.212507,-3256.906145,1184.329507,-80899.684589
4935.215059,1184.329507,1036.288319,-75690.235202
4935.217612,-11991.336260,13471.748144,-67109.965625
4935.220164,-10214.842000,6661.853478,-76303.111601
4935.222716,-7254.018232,10955.047942,-75077.358804
4935.225269,-5773.606348,17468.860231,-69101.813920
4935.227821,444.123565,7254.018232,-75996.673402
4935.230374,-3701.029710,3701.029710,-77528.864398
4935.232926,-22354.219448,12435.459826,-69101.813920
4935.235478,2516.700203,-8734.430116,-78294.959896
4935.238031,-8734.430116,10955.047942,-71553.319513
4935.240583,3701.029710,7254.018232,-71246.881314
4935.243135,19985.560434,-6365.771101,-81359.341888
4935.245688,-18653.189738,14211.954086,-60368.325242
4935.248240,6513.812290,-11251.130318,-77835.302597
4935.250793,-444.123565,-2812.782580,-75383.797003
4935.253345,-740.205942,6661.853478,-69561.471218
4935.255897,5921.647536,-1036.288319,-75690.235202
4935.258450,2960.823768,-4737.318029,-82891.532884
4935.261002,-444.123565,6957.935855,-73085.510509
4935.263555,1776.494261,4145.153275,-71553.319513
4935.266107,-296.082377,444.123565,-75230.577904
4935.268659,-592.164754,4441.235652,-75537.016103
4935.271212,-4737.318029,4885.359217,-73851.606007
4935.273764,5181.441594,-148.041188,-74617.701505
4935.276317,7846.182985,-5921.647536,-75843.454302
4935.278869,296.082377,-3256.906145,-71093.662214
4935.281421,2960.823768,-8438.347739,-74311.263306
4935.283974,-5181.441594,-888.247130,-74158.044206
4935.286526,-444.123565,5921.647536,-73545.167808
4935.289078,5329.482782,-1924.535449,-78754.617194
4935.291631,16580.613101,-3997.112087,-83351.190182
4935.294183,-23834.631332,25018.960840,-61900.516238
4935.296736,-3849.070898,-4885.359217,-80440.027290
4935.299288,-1924.535449,9918.759623,-74617.701505
4935.301840,-20873.807564,20429.683999,-65884.212828
4935.304393,11695.253884,296.082377,-87334.886772
4935.306945,-14359.995275,16580.613101,-68488.937521
4935.309498,-12879.583391,3701.029710,-72625.853210
4935.312051,7846.182985,-1184.329507,-77988.521696
4935.314604,-15840.407159,14359.995275,-65884.212828
4935.317156,0.000000,7698.141797,-74924.139704
4935.319709,-6069.688724,10807.006753,-76456.330700
4935.322262,-6513.812290,6957.935855,-78448.178995
4935.324815,-1924.535449,3849.070898,-73698.386908
4935.327367,-3997.112087,6513.812290,-71093.662214
4935.329920,-18801.230927,14656.077652,-72779.072310
4935.332473,-8734.430116,18949.272115,-70021.128517
4935.335026,-5921.647536,13323.706956,-74004.825107
4935.337578,-4589.276840,10807.006753,-75537.016103
4935.340131,-5329.482782,9622.677246,-73545.167808
4935.342684,-22058.137072,7698.141797,-73391.948708
4935.345237,7994.224174,-8438.347739,-78907.836294
4935.347789,-12287.418637,13323.706956,-70327.566716
4935.350342,1924.535449,1332.370696,-79061.055394
4935.352895,22798.343014,-3997.112087,-82431.875585
4935.355447,-25167.002028,13619.789333,-59908.667944
4935.358000,15100.201217,-15840.407159,-82431.875585
4935.360553,-5181.441594,-2072.576638,-74004.825107
4935.363106,1184.329507,10658.965565,-66650.308326
4935.365658,9178.553681,296.082377,-75996.673402
4935.368211,-296.082377,-3849.070898,-82125.437386
4935.370764,-888.247130,8882.471304,-71859.757712
4935.373317,2812.782580,-592.164754,-74617.701505
4935.375869,-4885.359217,-592.164754,-77835.302597
4935.378422,-1036.288319,6809.894666,-70787.224015
4935.380975,-3552.988522,4293.194464,-72012.976812
4935.383528,5773.606348,0.000000,-73391.948708
4935.386080,11695.253884,-3552.988522,-73545.167808
4935.388634,-5625.565159,-1480.411884,-72932.291410
4935.391187,6365.771101,-10510.924376,-78601.398095
4935.393740,-9622.677246,0.000000,-76762.768900
4935.396293,3701.029710,5625.565159,-75230.577904
4935.398846,592.164754,-888.247130,-78448.178995
4935.401399,7254.018232,-5477.523971,-83044.751983
4935.403953,-12287.418637,20725.766376,-65884.212828
4935.406506,-19393.395680,740.205942,-72472.634111
4935.409059,10066.800811,3701.029710,-78141.740796
4935.411612,-17912.983796,28719.990550,-61440.858940
4935.414165,3108.864956,1184.329507,-85802.695776
4935.416718,-6217.729913,6513.812290,-78601.398095
4935.419272,-22354.219448,6069.688724,-69408.252119
4935.421825,4441.235652,-2220.617826,-81206.122788
4935.424378,-6217.729913,11843.295072,-71400.100414
4935.426931,-5033.400406,11399.171507,-75996.673402
4935.429484,-5921.647536,6069.688724,-79673.931792
4935.432037,-9030.512492,1332.370696,-77069.207099
4935.434591,-2664.741391,6661.853478,-71246.881314
4935.437144,-7105.977043,11251.130318,-69408.252119
4935.439697,-19541.436869,12435.459826,-73851.606007
4935.442250,-592.164754,12583.501014,-76303.111601
4935.444803,-2812.782580,10658.965565,-75690.235202
4935.447357,-8142.265362,10066.800811,-76149.892501
4935.449910,-3552.988522,2812.782580,-77069.207099
4935.452463,-12583.501014,7698.141797,-73085.510509
4935.455016,-5181.441594,888.247130,-77069.207099
4935.457569,14656.077652,-4737.318029,-82738.313784
4935.460122,-19245.354492,18061.024985,-67263.184724
4935.462676,18357.107362,-15692.365970,-83810.847481
4935.465229,-6809.894666,-5625.565159,-75996.673402
4935.467782,-6661.853478,6217.729913,-67876.061123
4935.470335,8142.265362,-3997.112087,-76149.892501
4935.472888,7402.059420,1776.494261,-78294.959896
4935.475441,-1628.453072,13175.665768,-69255.033019
4935.477995,-1184.329507,1480.411884,-73698.386908
4935.480548,-5329.482782,-3997.112087,-76762.768900
4935.483101,-592.164754,-296.082377,-71553.319513
4935.485654,1184.329507,6365.771101,-76456.330700
4935.488207,-888.247130,1036.288319,-82278.656485
4935.490760,-148.041188,296.082377,-78907.836294
4935.493313,0.000000,-2220.617826,-74770.920605
4935.495867,15396.283594,-14063.912898,-85189.819378
4935.498420,-7105.977043,-5773.606348,-79214.274493
4935.500973,-1924.535449,-3404.947333,-74924.139704
4935.503526,2664.741391,3108.864956,-76915.987999
4935.506079,5329.482782,2072.576638,-73851.606007
4935.508632,11251.130318,6217.729913,-70940.443115
4935.511185,-25907.207970,16728.654289,-66803.527426
4935.513738,8290.306550,-8882.471304,-86722.010374
4935.516291,-14063.912898,17468.860231,-69867.909418
4935.518844,-15248.242405,14508.036463,-71706.538613
4935.521397,12731.542202,2368.659014,-83044.751983
4935.523951,-24574.837274,21317.931130,-62973.049936
4935.526504,1184.329507,-2368.659014,-77222.426198
4935.529057,-3256.906145,4293.194464,-76609.549800
4935.531610,-15396.283594,15100.201217,-70940.443115
4935.534163,5625.565159,4145.153275,-78907.836294
4935.536716,-9770.718434,6957.935855,-75383.797003
4935.539269,-3108.864956,8142.265362,-73698.386908
4935.541822,-2812.782580,2220.617826,-74004.825107
4935.544375,-9474.636058,9030.512492,-75690.235202
4935.546928,-8290.306550,12731.542202,-75690.235202
4935.549481,-15988.448347,19689.478057,-64198.802732
4935.552034,-740.205942,10955.047942,-73698.386908
4935.554588,-592.164754,10955.047942,-73238.729609
4935.557141,-13175.665768,8882.471304,-70327.566716
4935.559694,-5033.400406,10362.883188,-70940.443115
4935.562247,-11547.212695,-444.123565,-73698.386908
4935.564800,13027.624579,1036.288319,-77528.864398
4935.567353,-9918.759623,14359.995275,-68795.375720
4935.569906,8290.306550,-14359.995275,-84576.942979
4935.572459,-148.041188,0.000000,-74004.825107
4935.575012,-8290.306550,4441.235652,-68948.594820
4935.577565,10362.883188,-8290.306550,-81206.122788
4935.580118,11695.253884,3701.029710,-76149.892501
4935.582672,-6513.812290,11103.089130,-69408.252119
4935.585225,2812.782580,-1776.494261,-79827.150892
4935.587778,-5477.523971,-1776.494261,-73698.386908
4935.590331,-2072.576638,1628.453072,-72472.634111
4935.592884,1480.411884,4737.318029,-75843.454302
4935.595438,-1184.329507,3849.070898,-75077.358804
4935.597992,-6217.729913,3552.988522,-72625.853210
4935.600545,9326.594869,-6365.771101,-74770.920605
4935.603099,3997.112087,-3997.112087,-80593.246390
4935.605653,3552.988522,-5477.523971,-77682.083497
4935.608206,-9178.553681,-3108.864956,-74158.044206
4935.610760,3552.988522,4885.359217,-73391.948708
4935.613313,8438.347739,1480.411884,-74464.482406
4935.615867,6957.935855,-2368.659014,-76609.549800
4935.618421,-15544.324782,20133.601622,-66497.089226
4935.620974,-19097.313304,11695.253884,-67416.403824
4935.623528,10658.965565,-3701.029710,-86722.010374
4935.626081,-15100.201217,25167.002028,-68642.156621
4935.628635,444.123565,8734.430116,-76762.768900
4935.631189,-8438.347739,1628.453072,-78907.836294
4935.633742,-11399.171507,7254.018232,-72166.195912
4935.636296,-2516.700203,2516.700203,-76915.987999
4935.638850,-2960.823768,8734.430116,-76303.111601
4935.641403,-4589.276840,10807.006753,-73391.948708
4935.643957,-10510.924376,7994.224174,-73545.167808
4935.646510,1184.329507,-3108.864956,-77835.302597
4935.649064,-6365.771101,6809.894666,-72625.853210
4935.651618,-8882.471304,13767.830521,-72319.415011
4935.654171,592.164754,10066.800811,-82585.094684
4935.656725,-13471.748144,13471.748144,-75230.577904
4935.659279,-2516.700203,15100.201217,-73391.948708
4935.661832,-2072.576638,8438.347739,-75537.016103
4935.664386,-18505.148550,10807.006753,-72779.072310
4935.666939,5773.606348,-6069.688724,-74924.139704
4935.669493,-12731.542202,9178.553681,-69714.690318
4935.672047,888.247130,2664.741391,-72625.853210
4935.674600,24130.713709,-10658.965565,-83964.066581
4935.677154,-22354.219448,10955.047942,-63585.926334
4935.679708,9326.594869,-11251.130318,-80440.027290
4935.682261,-2072.576638,-2960.823768,-77988.521696
4935.684815,-740.205942,11991.336260,-68795.375720
4935.687368,2368.659014,1332.370696,-74464.482406
4935.689922,6069.688724,-6513.812290,-83351.190182
4935.692476,740.205942,4441.235652,-74464.482406
4935.695029,-1332.370696,4441.235652,-71246.881314
4935.697583,-6957.935855,3552.988522,-75690.235202
4935.700136,-148.041188,2072.576638,-77069.207099
4935.702690,-3701.029710,1776.494261,-72472.634111
4935.705243,13323.706956,-4441.235652,-72472.634111
4935.707797,0.000000,-4293.194464,-74311.263306
4935.710350,4293.194464,-7994.224174,-80286.808190
4935.712904,3108.864956,-5033.400406,-79520.712692
4935.715457,-6365.771101,3997.112087,-73085.510509
4935.718011,7846.182985,-2812.782580,-77222.426198
4935.720565,5921.647536,6661.853478,-75230.577904
4935.723118,-25018.960840,25018.960840,-63585.926334
4935.725672,-148.041188,-2368.659014,-76303.111601
4935.728225,-6809.894666,11695.253884,-75230.577904
4935.730779,-18357.107362,23538.548956,-64658.460031
4935.733332,9474.636058,-2220.617826,-86415.572174
4935.735886,-17764.942608,12435.459826,-71553.319513
4935.738439,-4589.276840,3701.029710,-72625.853210
4935.740993,-4737.318029,2072.576638,-77988.521696
4935.743546,-9474.636058,12435.459826,-72319.415011
4935.746100,-3552.988522,6365.771101,-74924.139704
4935.748653,-8586.388927,6809.894666,-76609.549800
4935.751207,3404.947333,2368.659014,-77988.521696
4935.753761,-8142.265362,5477.523971,-74158.044206
4935.756314,-7994.224174,7550.100608,-74004.825107
4935.758868,-6957.935855,8290.306550,-80440.027290
4935.761421,-9178.553681,12879.583391,-75690.235202
4935.763975,1332.370696,10658.965565,-77682.083497
4935.766528,-6809.894666,6069.688724,-79061.055394
4935.769082,-18061.024985,13175.665768,-76762.768900
4935.771635,8142.265362,-9030.512492,-81972.218286
4935.774189,-10807.006753,10955.047942,-69255.033019
4935.776742,4885.359217,-444.123565,-73391.948708
4935.779296,19541.436869,-6069.688724,-79520.712692
4935.781850,-18505.148550,12287.418637,-62666.611736
4935.784403,13471.748144,-12583.501014,-80899.684589
4935.786957,-6661.853478,1776.494261,-70940.443115
4935.789510,592.164754,9918.759623,-67263.184724
4935.792064,9474.636058,-7254.018232,-80746.465489
4935.794617,-1184.329507,-3552.988522,-79980.369991
4935.797171,-2664.741391,5181.441594,-72319.415011
4935.799725,-148.041188,2220.617826,-76149.892501
4935.802279,-4885.359217,-1776.494261,-82585.094684
4935.804833,0.000000,1184.329507,-79367.493593
4935.807387,-4441.235652,6957.935855,-71400.100414
4935.809941,11991.336260,-7994.224174,-73391.948708
4935.812495,5625.565159,-4441.235652,-75383.797003
4935.815049,-2960.823768,-2072.576638,-76609.549800
4935.817603,1776.494261,-10510.924376,-81818.999186
4935.820157,-5477.523971,5477.523971,-73238.729609
4935.822711,4441.235652,-1036.288319,-76609.549800
4935.825265,15396.283594,-1036.288319,-81972.218286
4935.827819,-26943.496289,25315.043216,-65730.993728
4935.830373,-10658.965565,4145.153275,-70940.443115
4935.832927,5181.441594,3849.070898,-78907.836294
4935.835481,-19097.313304,29756.278868,-59755.448844
4935.838035,6365.771101,1480.411884,-81359.341888
4935.840589,-8438.347739,8438.347739,-75230.577904
4935.843142,-12879.583391,7846.182985,-69867.909418
4935.845696,-4441.235652,1628.453072,-76762.768900
4935.848250,-4589.276840,8290.306550,-76303.111601
4935.850804,-6217.729913,9178.553681,-72472.634111
4935.853358,-6513.812290,10807.006753,-74004.825107
4935.855912,-444.123565,-296.082377,-77222.426198
4935.858466,-9178.553681,5477.523971,-74311.263306
4935.861020,-11251.130318,13619.789333,-75077.358804
4935.863574,-4737.318029,12583.501014,-77222.426198
4935.866128,-12731.542202,13915.871710,-69867.909418
4935.868682,-5181.441594,11547.212695,-70787.224015
4935.871236,-2812.782580,7994.224174,-74311.263306
4935.873790,-13471.748144,17172.777854,-68029.280222
4935.876344,-3256.906145,-5329.482782,-77069.207099
4935.878898,9326.594869,-1628.453072,-78601.398095
4935.881452,-14508.036463,15100.201217,-63279.488135
4935.884006,21614.013506,-18653.189738,-85955.914876
4935.886560,-7994.224174,4293.194464,-70480.785816
4935.889114,-3997.112087,444.123565,-70480.785816
4935.891668,9178.553681,-8438.347739,-81052.903688
4935.894222,-4145.153275,8438.347739,-70174.347617
4935.896776,296.082377,1776.494261,-72779.072310
4935.899329,2812.782580,-4885.359217,-82891.532884
4935.901883,592.164754,296.082377,-76609.549800
4935.904437,-1480.411884,4293.194464,-70480.785816
4935.906991,-2516.700203,7254.018232,-75077.358804
4935.909545,3404.947333,296.082377,-80593.246390
4935.912098,-296.082377,2516.700203,-71859.757712
4935.914652,10807.006753,-3108.864956,-72166.195912
4935.917206,2072.576638,-6513.812290,-74617.701505
4935.919760,-3552.988522,1924.535449,-68795.375720
4935.922314,2072.576638,3552.988522,-71093.662214
4935.924867,4589.276840,444.123565,-72012.976812
4935.927421,-2516.700203,16136.489536,-67569.622924
4935.929975,-11991.336260,-296.082377,-78294.959896
4935.932529,740.205942,4293.194464,-80899.684589
4935.935083,-25463.084405,22206.178260,-68488.937521
4935.937636,-1332.370696,4293.194464,-81972.218286
4935.940190,2072.576638,9770.718434,-79520.712692
4935.942744,-14804.118840,19393.395680,-65118.117330
4935.945298,-3701.029710,-1776.494261,-76762.768900
4935.947851,-6069.688724,3701.029710,-74924.139704
4935.950405,-12583.501014,12583.501014,-70634.004916
4935.952959,444.123565,6069.688724,-77528.864398
4935.955513,-10955.047942,7698.141797,-76303.111601
4935.958067,-10214.842000,7402.059420,-73698.386908
4935.960620,2516.700203,296.082377,-78141.740796
4935.963174,-11843.295072,8734.430116,-78294.959896
4935.965728,-13175.665768,13027.624579,-74617.701505
4935.968282,-1332.370696,10955.047942,-76303.111601
4935.970836,-9770.718434,10510.924376,-75690.235202
4935.973389,-2220.617826,11991.336260,-72779.072310
4935.975943,-13619.789333,10510.924376,-73851.606007
4935.978497,-148.041188,-2664.741391,-79061.055394
4935.981051,2072.576638,3997.112087,-73851.606007
4935.983605,-12731.542202,2960.823768,-71400.100414
4935.986158,30792.567187,-11399.171507,-82738.313784
4935.988712,-15248.242405,11695.253884,-61900.516238
4935.991266,740.205942,-6365.771101,-78294.959896
4935.993820,8438.347739,-4589.276840,-77682.083497
4935.996374,-9474.636058,13471.748144,-65118.117330
4935.998927,9770.718434,-1480.411884,-76762.768900
4936.001481,148.041188,148.041188,-77528.864398
4936.004035,-5773.606348,3552.988522,-74158.044206
4936.006589,1924.535449,2220.617826,-71246.881314
4936.009143,-5773.606348,444.123565,-79061.055394
4936.011697,-2368.659014,4441.235652,-78448.178995
4936.014251,6069.688724,148.041188,-71400.100414
4936.016805,5477.523971,-2664.741391,-73238.729609
4936.019359,2812.782580,-5181.441594,-74617.701505
4936.021913,-2960.823768,-1184.329507,-71093.662214
4936.024467,296.082377,5329.482782,-72779.072310
4936.027021,9918.759623,-444.123565,-71706.538613
4936.029575,-9622.677246,17616.901420,-68029.280222
4936.032129,-2220.617826,1924.535449,-79061.055394
4936.034683,-5033.400406,4737.318029,-80133.589091
4936.037237,-32569.061448,22354.219448,-68795.375720
4936.039791,6217.729913,2960.823768,-82738.313784
4936.042344,11103.089130,-2368.659014,-85649.476676
4936.044898,-18949.272115,15100.201217,-69714.690318
4936.047452,-5329.482782,4737.318029,-71246.881314
4936.050006,-4441.235652,-444.123565,-77682.083497
4936.052560,-10955.047942,13175.665768,-70480.785816
4936.055114,-1036.288319,7994.224174,-76609.549800
4936.057668,-10362.883188,6365.771101,-77988.521696
4936.060222,2220.617826,2812.782580,-75537.016103
4936.062776,-11547.212695,9178.553681,-69561.471218
4936.065330,-10955.047942,8142.265362,-76456.330700
4936.067884,-7698.141797,11843.295072,-77835.302597
4936.070438,-10510.924376,16728.654289,-73085.510509
4936.072992,-2960.823768,11251.130318,-75230.577904
4936.075546,-8142.265362,8882.471304,-72166.195912
4936.078100,-3701.029710,7698.141797,-74311.263306
4936.080654,-10955.047942,6957.935855,-71093.662214
4936.083208,13619.789333,-10362.883188,-83044.751983
4936.085762,-4589.276840,15100.201217,-68948.594820
4936.088316,6365.771101,-11103.089130,-81359.341888
4936.090870,4885.359217,-12287.418637,-85189.819378
4936.093423,-10955.047942,9326.594869,-65271.336430
4936.095977,2368.659014,-7846.182985,-79827.150892
4936.098531,7994.224174,1924.535449,-78754.617194
4936.101085,-1776.494261,9622.677246,-70940.443115
4936.103639,2960.823768,-5773.606348,-81052.903688
4936.106192,-3108.864956,1036.288319,-73698.386908
4936.108746,-8290.306550,4293.194464,-71400.100414
4936.111300,2812.782580,2960.823768,-79673.931792
4936.113853,3256.906145,-3849.070898,-77222.426198
4936.116407,3404.947333,-2516.700203,-77222.426198
4936.118960,3701.029710,-3849.070898,-75690.235202
4936.121514,296.082377,-7402.059420,-77835.302597
4936.124067,-9474.636058,-1332.370696,-76303.111601
4936.126621,12435.459826,-6513.812290,-79673.931792
4936.129174,-10214.842000,6069.688724,-75537.016103
4936.131728,14508.036463,-3108.864956,-80746.465489
4936.134282,-19837.519246,20725.766376,-66037.431928
4936.136835,-14804.118840,6809.894666,-69408.252119
4936.139389,6365.771101,5329.482782,-76609.549800
4936.141942,-21021.848753,26499.372724,-62973.049936
4936.144496,10362.883188,-148.041188,-83504.409282
4936.147049,-14656.077652,7550.100608,-73391.948708
4936.149603,-15988.448347,9622.677246,-72166.195912
4936.152156,1924.535449,4145.153275,-72472.634111
4936.154710,-8142.265362,8586.388927,-74770.920605
4936.157264,-4145.153275,12583.501014,-73545.167808
4936.159817,-3552.988522,5329.482782,-72779.072310
4936.162371,-8438.347739,2072.576638,-74770.920605
4936.164924,-5181.441594,6365.771101,-75996.673402
4936.167478,-21021.848753,16136.489536,-71093.662214
4936.170031,-888.247130,11103.089130,-77682.083497
4936.172585,-6809.894666,10362.883188,-78141.740796
4936.175138,-6513.812290,13915.871710,-72319.415011
4936.177692,-11695.253884,12879.583391,-72932.291410
4936.180246,-444.123565,-8142.265362,-81818.999186
4936.182799,-3701.029710,8586.388927,-72319.415011
4936.185353,-14508.036463,5329.482782,-68642.156621
4936.187906,23390.507767,-15396.283594,-86568.791274
4936.190460,-2960.823768,8882.471304,-66497.089226
4936.193013,-8438.347739,-444.123565,-70480.785816
4936.195567,7402.059420,-6513.812290,-77988.521696
4936.198120,-3404.947333,8290.306550,-67722.842023
4936.200674,2072.576638,2368.659014,-74311.263306
4936.203228,7846.182985,-3849.070898,-81206.122788
4936.205778,-5477.523971,-592.164754,-73085.510509
4936.208332,-1480.411884,444.123565,-76456.330700
4936.210886,1628.453072,-2368.659014,-81665.780087
4936.213440,-4885.359217,6661.853478,-78754.617194
4936.215993,14508.036463,-1776.494261,-75690.235202
4936.218547,296.082377,-9770.718434,-74924.139704
4936.221101,296.082377,-3256.906145,-73085.510509
4936.223655,-4145.153275,-888.247130,-75077.358804
4936.226208,6957.935855,-4589.276840,-78907.836294
4936.228762,-3997.112087,1036.288319,-79214.274493
4936.231316,11103.089130,-888.247130,-80133.589091
4936.233870,-24130.713709,26203.290347,-65424.555529
4936.236423,-4589.276840,2220.617826,-75383.797003
4936.238977,-6069.688724,10807.006753,-75383.797003
4936.241531,-14656.077652,21465.972318,-66190.651027
4936.244085,7254.018232,3108.864956,-80746.465489
4936.246638,-15840.407159,9030.512492,-73238.729609
4936.249192,-5329.482782,4441.235652,-71093.662214
4936.251746,-4145.153275,4293.194464,-73698.386908
4936.254300,-8142.265362,13471.748144,-70787.224015
4936.256853,0.000000,8882.471304,-73698.386908
4936.259407,-8734.430116,4885.359217,-74770.920605
4936.261961,-5625.565159,2812.782580,-76762.768900
4936.264515,-6069.688724,7550.100608,-74617.701505
4936.267068,-18357.107362,11695.253884,-71400.100414
4936.269622,888.247130,9918.759623,-75996.673402
4936.272176,-11399.171507,16876.695478,-73851.606007
4936.274730,-296.082377,11399.171507,-76149.892501
4936.277283,-15544.324782,13471.748144,-74770.920605
4936.279837,-1480.411884,-4885.359217,-77988.521696
4936.282391,2664.741391,8734.430116,-70940.443115
4936.284945,-9326.594869,-3849.070898,-74770.920605
4936.287499,29608.237680,-7105.977043,-80440.027290
4936.290052,-15840.407159,14804.118840,-58836.134246
4936.292606,-11251.130318,5181.441594,-69714.690318
4936.295160,11991.336260,-9178.553681,-80899.684589
4936.297714,-9622.677246,8586.388927,-70174.347617
4936.300267,4293.194464,3701.029710,-75077.358804
4936.302821,10658.965565,-6217.729913,-83657.628382
4936.305375,-9622.677246,2812.782580,-75690.235202
4936.307895,-296.082377,1628.453072,-76915.987999
4936.310415,-4589.276840,-148.041188,-81972.218286
4936.312936,-740.205942,2516.700203,-79673.931792
4936.315456,7254.018232,-6217.729913,-75996.673402
4936.317976,6957.935855,-8882.471304,-81052.903688
4936.320497,1628.453072,-3849.070898,-77375.645298
4936.323017,-7550.100608,-5329.482782,-77835.302597
4936.325537,7402.059420,-5625.565159,-80593.246390
4936.328058,592.164754,6661.853478,-74158.044206
4936.330578,-1628.453072,-1480.411884,-76303.111601
4936.333098,-8290.306550,18505.148550,-71246.881314
4936.335618,-20429.683999,12139.377449,-68642.156621
4936.338139,1628.453072,1480.411884,-80133.589091
4936.340659,-10066.800811,22946.384202,-63739.145434
4936.343179,-2368.659014,6957.935855,-76762.768900
4936.345700,-5921.647536,2220.617826,-78601.398095
4936.348220,-13027.624579,8290.306550,-71859.757712
4936.350740,-5921.647536,5329.482782,-76456.330700
4936.353261,-4145.153275,8438.347739,-75996.673402
4936.355781,-5329.482782,12139.377449,-71093.662214
4936.358301,-7402.059420,4441.235652,-75996.673402
4936.360821,-2220.617826,3701.029710,-77069.207099
4936.363342,-14211.954086,13619.789333,-73851.606007
4936.365862,-4293.194464,14359.995275,-76149.892501
4936.368382,-8882.471304,8882.471304,-78448.178995
4936.370903,-10658.965565,15100.201217,-76149.892501
4936.373423,-4293.194464,10510.924376,-74617.701505
4936.375943,-6513.812290,7698.141797,-77375.645298
4936.378464,-8438.347739,6217.729913,-72932.291410
4936.380984,13471.748144,-11695.253884,-81972.218286
4936.383504,-16728.654289,11695.253884,-67416.403824
4936.386024,23686.590144,-17024.736666,-84576.942979
4936.388545,-2220.617826,-6661.853478,-80133.589091
4936.391065,-8586.388927,8142.265362,-69867.909418
4936.393585,7550.100608,-10066.800811,-82738.313784
4936.396106,-1628.453072,2072.576638,-76456.330700
4936.398626,296.082377,8438.347739,-72012.976812
4936.401146,3552.988522,-2220.617826,-74617.701505
4936.403667,-2812.782580,-2368.659014,-76456.330700
4936.406187,-5329.482782,6217.729913,-70940.443115
4936.408714,-1776.494261,7994.224174,-70480.785816
4936.411242,12435.459826,-5921.647536,-79367.493593
4936.413769,4737.318029,2516.700203,-71859.757712
4936.416297,-5477.523971,-296.082377,-68795.375720
4936.418824,2516.700203,-7105.977043,-74924.139704
4936.421352,-5477.523971,4589.276840,-70327.566716
4936.423879,9918.759623,-4885.359217,-69714.690318
4936.426407,6069.688724,10066.800811,-68948.594820
4936.428934,-28127.825796,15840.407159,-68029.280222
4936.431462,11695.253884,-4737.318029,-87947.763170
4936.433989,-14359.995275,13471.748144,-76303.111601
4936.436517,-15840.407159,18209.066173,-70327.566716
4936.439044,11103.089130,1480.411884,-81665.780087
4936.441572,-18505.148550,15544.324782,-66037.431928
4936.444099,-1036.288319,5921.647536,-70634.004916
4936.446627,-5477.523971,2220.617826,-74004.825107
4936.449154,-9474.636058,13767.830521,-70940.443115
4936.451682,-2664.741391,10807.006753,-74924.139704
4936.454209,-9178.553681,6365.771101,-75537.016103
4936.456737,-7550.100608,3701.029710,-77528.864398
4936.459264,-6217.729913,8882.471304,-75230.577904
4936.461792,-17024.736666,10066.800811,-73698.386908
4936.464319,-1184.329507,10658.965565,-74311.263306
4936.466847,-14211.954086,18505.148550,-69101.813920
4936.469374,-444.123565,11103.089130,-73085.510509
4936.471902,-8290.306550,9770.718434,-78907.836294
4936.474429,-17172.777854,4589.276840,-72472.634111
4936.476957,15544.324782,-13915.871710,-81206.122788
4936.479484,-10362.883188,11695.253884,-66956.746525
4936.482012,11399.171507,-10066.800811,-80746.465489
4936.484539,9326.594869,-10066.800811,-80286.808190
4936.487067,-17468.860231,11991.336260,-64045.583633
4936.489594,7994.224174,-6365.771101,-79673.931792
4936.492122,3701.029710,1332.370696,-75843.454302
4936.494649,-4441.235652,8882.471304,-73851.606007
4936.497177,12139.377449,-6217.729913,-82431.875585
4936.499704,-6069.688724,-148.041188,-74311.263306
4936.502232,-5477.523971,9178.553681,-66650.308326
4936.504759,1776.494261,1332.370696,-76149.892501
4936.507287,3404.947333,-592.164754,-78907.836294
4936.509821,2368.659014,1628.453072,-66803.527426
4936.512354,1184.329507,-444.123565,-65577.774629
4936.514888,-8438.347739,-5477.523971,-72779.072310
4936.517422,4737.318029,-3552.988522,-75537.016103
4936.519956,-1924.535449,-2072.576638,-73391.948708
4936.522490,17912.983796,3404.947333,-77222.426198
4936.525024,-27387.619854,26055.249158,-68642.156621
4936.527558,1036.288319,-4441.235652,-88560.639569
4936.530092,-13471.748144,14508.036463,-74770.920605
4936.532626,-19689.478057,14804.118840,-72166.195912
4936.535160,13027.624579,-3108.864956,-86415.572174
4936.537694,-15396.283594,15248.242405,-67722.842023
4936.540228,-6217.729913,6217.729913,-73085.510509
4936.542761,-1776.494261,0.000000,-74004.825107
4936.545295,-10214.842000,11399.171507,-71706.538613
4936.547829,-2220.617826,10066.800811,-74158.044206
4936.550363,-3701.029710,2664.741391,-77528.864398
4936.552897,-10658.965565,3997.112087,-76762.768900
4936.555431,-8142.265362,10362.883188,-74464.482406
4936.557965,-13619.789333,11251.130318,-73851.606007
4936.560499,-7994.224174,10066.800811,-76915.987999
4936.563033,-5477.523971,14508.036463,-75843.454302
4936.565567,-11251.130318,11547.212695,-75996.673402
4936.568101,2664.741391,13323.706956,-76149.892501
4936.570634,-15544.324782,1184.329507,-74924.139704
4936.573168,15248.242405,-12435.459826,-81512.560987
4936.575702,-13471.748144,12287.418637,-64811.679131
4936.578236,15988.448347,-16728.654289,-85649.476676
4936.580770,17024.736666,-14952.160028,-88100.982270
4936.583304,-17172.777854,10362.883188,-66497.089226
4936.585838,-296.082377,1332.370696,-75996.673402
4936.588372,10510.924376,-888.247130,-77375.645298
4936.590906,-7402.059420,8586.388927,-71553.319513
4936.593440,4441.235652,-2516.700203,-78448.178995
4936.595974,888.247130,-3256.906145,-76762.768900
4936.598507,-9622.677246,8142.265362,-70480.785816
4936.601041,1184.329507,6217.729913,-71553.319513
4936.603575,11547.212695,-4589.276840,-77222.426198
4936.606109,1776.494261,1628.453072,-67569.622924
4936.608643,7994.224174,-3256.906145,-69408.252119
4936.611182,-9326.594869,-4441.235652,-74004.825107
4936.613721,1776.494261,-2812.782580,-78448.178995
4936.616260,-5033.400406,2072.576638,-78294.959896
4936.618799,9918.759623,-7402.059420,-85955.914876
4936.621338,-13767.830521,22206.178260,-69255.033019
4936.623877,-24426.796086,12139.377449,-70634.004916
4936.626415,8438.347739,-2072.576638,-87028.448573
4936.628954,-21317.931130,25463.084405,-62360.173537
4936.631493,4885.359217,2516.700203,-79673.931792
4936.634032,-2664.741391,2220.617826,-77222.426198
4936.636571,-18209.066173,6069.688724,-73085.510509
4936.639110,1776.494261,2812.782580,-77835.302597
4936.641649,-5181.441594,9622.677246,-74924.139704
4936.644188,-6365.771101,8142.265362,-74004.825107
4936.646727,3108.864956,592.164754,-76456.330700
4936.649266,-12731.542202,6069.688724,-74924.139704
4936.651805,-17764.942608,14359.995275,-74004.825107
4936.654343,-3108.864956,11399.171507,-76762.768900
4936.656882,-11547.212695,15840.407159,-75537.016103
4936.659421,-3849.070898,14211.954086,-73698.386908
4936.661960,-17024.736666,17320.819043,-71400.100414
4936.664499,3108.864956,-1924.535449,-77682.083497
4936.667038,-8586.388927,7402.059420,-69867.909418
4936.669577,-2072.576638,-7254.018232,-77682.083497
4936.672116,25018.960840,-8438.347739,-79673.931792
4936.674655,-14211.954086,11843.295072,-59142.572446
4936.677194,11695.253884,-9474.636058,-81512.560987
4936.679733,-2960.823768,-444.123565,-74617.701505
4936.682271,-6513.812290,8882.471304,-69408.252119
4936.684810,12139.377449,-1184.329507,-77222.426198
4936.687349,8142.265362,-1332.370696,-79520.712692
4936.689888,-6661.853478,148.041188,-73545.167808
4936.692427,4441.235652,1332.370696,-74924.139704
4936.694966,-9178.553681,4145.153275,-78294.959896
4936.697505,5033.400406,1332.370696,-78448.178995
4936.700044,6661.853478,-5773.606348,-78601.398095
4936.702583,3997.112087,-11103.089130,-82125.437386
4936.705122,-740.205942,-5477.523971,-75690.235202
4936.707661,-3997.112087,148.041188,-74464.482406
4936.710199,16432.571912,-8734.430116,-80133.589091
4936.712743,-2368.659014,9622.677246,-69561.471218
4936.715287,-21614.013506,18209.066173,-67416.403824
4936.717830,13027.624579,-888.247130,-84883.381178
4936.720374,-34197.514520,16136.489536,-71859.757712
4936.722917,-15692.365970,16580.613101,-67876.061123
4936.725461,13619.789333,-296.082377,-82431.875585
4936.728004,-16432.571912,16728.654289,-67722.842023
4936.730548,-5625.565159,6513.812290,-71246.881314
4936.733091,-5181.441594,2368.659014,-75537.016103
4936.735635,-15840.407159,13027.624579,-70174.347617
4936.738178,4441.235652,7846.182985,-74158.044206
4936.740722,-11251.130318,4737.318029,-75690.235202
4936.743265,-2812.782580,9030.512492,-72012.976812
4936.745809,-6513.812290,10510.924376,-72012.976812
4936.748352,-16728.654289,14211.954086,-71093.662214
4936.750896,-6809.894666,15100.201217,-71859.757712
4936.753439,-6217.729913,11695.253884,-79367.493593
4936.755983,-14952.160028,15396.283594,-77835.302597
4936.758527,6069.688724,-2072.576638,-81359.341888
4936.761070,-13915.871710,9622.677246,-69867.909418
4936.763614,8142.265362,-11251.130318,-77528.864398
4936.766157,13323.706956,-3256.906145,-77682.083497
4936.768701,-10066.800811,8438.347739,-65271.336430
4936.771244,16284.530724,-11251.130318,-84423.723880
4936.773788,-15396.283594,5477.523971,-70327.566716
4936.776331,2516.700203,4293.194464,-71093.662214
4936.778875,7698.141797,-592.164754,-76149.892501
4936.781418,-2960.823768,8586.388927,-71706.538613
4936.783962,2516.700203,740.205942,-72472.634111
4936.786505,-5033.400406,592.164754,-75996.673402
4936.789049,592.164754,6069.688724,-73851.606007
4936.791592,-592.164754,4441.235652,-72472.634111
4936.794136,5773.606348,-6069.688724,-76456.330700
4936.796679,12583.501014,-10807.006753,-82431.875585
4936.799223,-10658.965565,-3404.947333,-75230.577904
4936.801766,740.205942,-1480.411884,-77069.207099
4936.804310,10807.006753,-9622.677246,-79367.493593
4936.806854,2516.700203,9178.553681,-69867.909418
4936.809397,-18357.107362,18801.230927,-67416.403824
4936.811941,4441.235652,-1036.288319,-86262.353075
4936.814487,-27683.702231,26943.496289,-65884.212828
4936.817034,-2368.659014,2368.659014,-79827.150892
4936.819581,444.123565,6217.729913,-79061.055394
4936.822128,-11103.089130,17912.983796,-62973.049936
4936.824675,-1480.411884,-888.247130,-80286.808190
4936.827222,-10214.842000,7698.141797,-77835.302597
4936.829769,-2368.659014,12583.501014,-72319.415011
4936.832315,-5477.523971,11991.336260,-72166.195912
4936.834862,-5033.400406,2664.741391,-74924.139704
4936.837409,-8438.347739,3404.947333,-74311.263306
4936.839956,-18801.230927,13175.665768,-71706.538613
4936.842503,2812.782580,6957.935855,-81206.122788
4936.845050,-18357.107362,14656.077652,-76609.549800
4936.847596,4885.359217,12287.418637,-76915.987999
4936.850143,-20133.601622,13619.789333,-75996.673402
4936.852690,5773.606348,-888.247130,-81359.341888
4936.855237,-10362.883188,9030.512492,-70327.566716
4936.857784,5181.441594,-13027.624579,-81052.903688
4936.860331,18801.230927,-4293.194464,-78448.178995
4936.862878,-10955.047942,5329.482782,-64198.802732
4936.865424,-1480.411884,-3404.947333,-77222.426198
4936.867971,6809.894666,-8586.388927,-82125.437386
4936.870518,-3552.988522,3552.988522,-72319.415011
4936.873065,1480.411884,5329.482782,-73085.510509
4936.875612,11547.212695,-3256.906145,-80899.684589
4936.878159,-11695.253884,-2960.823768,-77069.207099
4936.880706,-2368.659014,3849.070898,-74311.263306
4936.883252,2516.700203,592.164754,-76915.987999
4936.885799,4145.153275,2960.823768,-76149.892501
4936.888346,14359.995275,-4589.276840,-76915.987999
4936.890893,-1480.411884,-7698.141797,-75996.673402
4936.893440,-6661.853478,1184.329507,-70634.004916
4936.895987,7105.977043,-7994.224174,-76303.111601
4936.898533,-6809.894666,-2812.782580,-77528.864398
4936.901080,11991.336260,-1036.288319,-81052.903688
4936.903627,-9770.718434,17172.777854,-74311.263306
4936.906174,-25315.043216,20281.642811,-68029.280222
4936.908721,9622.677246,-3404.947333,-85649.476676
4936.911268,-19097.313304,17172.777854,-69408.252119
4936.913815,3256.906145,6365.771101,-77069.207099
4936.916364,-2960.823768,-1628.453072,-79827.150892
4936.918914,-18653.189738,8142.265362,-75996.673402
4936.921464,-592.164754,6661.853478,-74617.701505
4936.924014,-4145.153275,7402.059420,-76609.549800
4936.926564,-2072.576638,6661.853478,-73545.167808
4936.929114,-6957.935855,1776.494261,-73391.948708
4936.931663,-9030.512492,7105.977043,-76456.330700
4936.934213,-2516.700203,11991.336260,-76456.330700
4936.936763,-3701.029710,13767.830521,-72319.415011
4936.939313,-8586.388927,15396.283594,-73238.729609
4936.941863,-6365.771101,7402.059420,-78448.178995
4936.944412,-4885.359217,9474.636058,-77375.645298
4936.946962,-13175.665768,8142.265362,-71246.881314
4936.949512,17320.819043,-14952.160028,-81972.218286
4936.952062,-10807.006753,7550.100608,-69408.252119
4936.954612,8734.430116,-12287.418637,-78294.959896
4936.957162,9030.512492,-10510.924376,-84883.381178
4936.959711,-13471.748144,13323.706956,-66343.870127
4936.962261,2960.823768,-3256.906145,-78907.836294
4936.964811,3404.947333,0.000000,-80746.465489
4936.967361,1332.370696,4589.276840,-74004.825107
4936.969911,-2220.617826,-1776.494261,-77222.426198
4936.972461,888.247130,-2516.700203,-74770.920605
4936.975010,296.082377,7550.100608,-73238.729609
4936.977560,-2516.700203,6513.812290,-73851.606007
4936.980110,14359.995275,-9326.594869,-79673.931792
4936.982660,592.164754,-6809.894666,-75537.016103
4936.985210,-4885.359217,-3256.906145,-72012.976812
4936.987760,5181.441594,-7550.100608,-78448.178995
4936.990309,-1184.329507,-6069.688724,-76762.768900
4936.992859,15100.201217,4293.194464,-74770.920605
4936.995409,-26795.455100,24574.837274,-67569.622924
4936.997959,6217.729913,2812.782580,-83657.628382
4937.000509,-24426.796086,21762.054695,-67109.965625
4937.003059,-10658.965565,10955.047942,-74311.263306
4937.005608,9326.594869,3108.864956,-80440.027290
4937.008158,-8586.388927,8438.347739,-71706.538613
4937.010708,-13619.789333,7550.100608,-71400.100414
4937.013258,-4589.276840,4441.235652,-75537.016103
4937.015808,-9326.594869,11103.089130,-73851.606007
4937.018360,148.041188,8734.430116,-74158.044206
4937.020913,-1924.535449,2072.576638,-74617.701505
4937.023465,-10214.842000,6661.853478,-75077.358804
4937.026018,-13027.624579,13915.871710,-73851.606007
4937.028571,-12731.542202,15840.407159,-74464.482406
4937.031123,-6957.935855,12287.418637,-74617.701505
4937.033676,-3552.988522,13323.706956,-73238.729609
4937.036228,-10658.965565,20281.642811,-74158.044206
4937.038781,-5921.647536,592.164754,-75996.673402
4937.041334,2812.782580,-13027.624579,-79827.150892
4937.043886,-11103.089130,9326.594869,-68029.280222
4937.046439,23242.466579,-18949.272115,-84117.285680
4937.048991,-1036.288319,-6069.688724,-80286.808190
4937.051544,-7550.100608,11547.212695,-69561.471218
4937.054097,2664.741391,-5477.523971,-80133.589091
4937.056649,-1924.535449,2516.700203,-76609.549800
4937.059202,5477.523971,3256.906145,-72319.415011
4937.061754,-1480.411884,-3404.947333,-77375.645298
4937.064307,-148.041188,1036.288319,-76303.111601
4937.066860,-6809.894666,6217.729913,-72932.291410
4937.069412,-1628.453072,-148.041188,-79367.493593
4937.071965,15988.448347,-3256.906145,-77222.426198
4937.074517,-3552.988522,592.164754,-68029.280222
4937.077070,14508.036463,-10510.924376,-78754.617194
4937.079622,5181.441594,-8586.388927,-78907.836294
