#time,accel_x,accel_y,accel_z
14068.278143,-1628.453072,2516.700203,-75230.577904
14068.281514,-4441.235652,5033.400406,-73698.386908
14068.284886,-4145.153275,10214.842000,-69101.813920
14068.288258,-444.123565,4145.153275,-71706.538613
14068.291630,-3404.947333,3701.029710,-77222.426198
14068.295002,-4589.276840,7994.224174,-74311.263306
14068.298373,296.082377,3404.947333,-79673.931792
14068.301745,-6513.812290,4589.276840,-80286.808190
14068.305117,-7254.018232,7550.100608,-74004.825107
14068.308489,1036.288319,6661.853478,-74158.044206
14068.311860,-1776.494261,2220.617826,-79367.493593
14068.315232,-7846.182985,8142.265362,-75077.358804
14068.318604,2960.823768,6069.688724,-76303.111601
14068.321976,-3849.070898,3404.947333,-78141.740796
14068.325348,-8142.265362,6809.894666,-75537.016103
14068.328719,1480.411884,5181.441594,-74924.139704
14068.332091,-2812.782580,5921.647536,-77222.426198
14068.335463,-6809.894666,5921.647536,-77069.207099
14068.338835,-1332.370696,6365.771101,-74464.482406
14068.342206,-2960.823768,7994.224174,-74004.825107
14068.345578,-5033.400406,6661.853478,-75843.454302
14068.348950,-2368.659014,3701.029710,-78601.398095
14068.352322,-2664.741391,5773.606348,-76609.549800
14068.355337,-740.205942,7846.182985,-72166.195912
14068.358352,-1480.411884,3997.112087,-76762.768900
14068.361367,-2812.782580,6217.729913,-76456.330700
14068.364382,740.205942,8734.430116,-77988.521696
14068.367396,888.247130,1776.494261,-79367.493593
14068.370411,-5921.647536,8142.265362,-67722.842023
14068.373426,1924.535449,10066.800811,-64505.240932
14068.376441,296.082377,592.164754,-79061.055394
14068.379456,-7698.141797,3404.947333,-78141.740796
14068.382471,-740.205942,6513.812290,-73391.948708
14068.385486,1036.288319,4293.194464,-71859.757712
14068.388501,-7105.977043,7105.977043,-72472.634111
14068.391516,-1776.494261,7846.182985,-73391.948708
14068.394531,888.247130,4737.318029,-79980.369991
14068.397546,-5329.482782,3849.070898,-77835.302597
14068.400561,-5477.523971,7698.141797,-71553.319513
14068.403576,2812.782580,6217.729913,-74004.825107
14068.406591,-5477.523971,6957.935855,-76456.330700
14068.409606,-3108.864956,4145.153275,-77682.083497
14068.412620,-148.041188,6809.894666,-72319.415011
14068.415635,-1776.494261,9770.718434,-70327.566716
14068.418650,-444.123565,4145.153275,-77069.207099
14068.421665,148.041188,5477.523971,-80286.808190
14068.424680,5181.441594,7254.018232,-75690.235202
14068.427695,7254.018232,2812.782580,-73851.606007
14068.430710,-5625.565159,-1332.370696,-77682.083497
14068.433725,-888.247130,-2516.700203,-74617.701505
14068.436740,10955.047942,-148.041188,-72166.195912
14068.439755,-888.247130,9178.553681,-69561.471218
14068.442770,-592.164754,5625.565159,-74004.825107
14068.445785,-3849.070898,296.082377,-79980.369991
14068.448800,-3997.112087,0.000000,-77528.864398
14068.451646,-15692.365970,9030.512492,-81972.218286
14068.454493,4737.318029,11991.336260,-69255.033019
14068.457340,-9030.512492,9474.636058,-75690.235202
14068.460187,-11251.130318,7846.182985,-85343.038477
14068.463034,-5773.606348,5033.400406,-88713.858668
14068.465880,-11991.336260,6217.729913,-88254.201370
14068.468727,-7846.182985,10807.006753,-75383.797003
14068.471574,-296.082377,9918.759623,-69408.252119
14068.474421,-7698.141797,9770.718434,-74617.701505
14068.477267,-10955.047942,5181.441594,-81512.560987
14068.480114,-8586.388927,9326.594869,-79980.369991
14068.482961,-12583.501014,4145.153275,-79214.274493
14068.485808,-5921.647536,10955.047942,-83504.409282
14068.488654,-16284.530724,7105.977043,-88407.420469
14068.491501,-9918.759623,10807.006753,-81818.999186
14068.494348,-2812.782580,12435.459826,-73085.510509
14068.497195,296.082377,12139.377449,-69101.813920
14068.500041,-14656.077652,9918.759623,-74311.263306
14068.502888,-7105.977043,6661.853478,-75690.235202
14068.505735,-148.041188,4737.318029,-73545.167808
14068.508582,3552.988522,7846.182985,-70021.128517
14068.511428,3404.947333,10066.800811,-65577.774629
14068.514275,2960.823768,10807.006753,-67416.403824
14068.517122,-20281.642811,16580.613101,-65118.117330
14068.519969,-2664.741391,16876.695478,-76915.987999
14068.522815,-3701.029710,2072.576638,-101737.482134
14068.525662,-5625.565159,-7402.059420,-91778.240660
14068.528509,1184.329507,5921.647536,-54545.999458
14068.531356,-5921.647536,19985.560434,-50409.083768
14068.534203,-10510.924376,13619.789333,-62973.049936
14068.537049,-6513.812290,-5033.400406,-118285.144891
14068.539896,-9474.636058,0.000000,-113382.133704
14068.542666,-8438.347739,4145.153275,-73085.510509
14068.545436,296.082377,13027.624579,-66190.651027
14068.548206,-4885.359217,8586.388927,-76149.892501
14068.550976,-9178.553681,-2812.782580,-104648.645027
14068.553746,-4737.318029,-1036.288319,-92391.117059
14068.556515,-3701.029710,7254.018232,-65730.993728
14068.559285,2812.782580,9622.677246,-60521.544342
14068.562055,592.164754,1480.411884,-81512.560987
14068.564825,-10807.006753,-1332.370696,-93923.308055
14068.567595,-5625.565159,1628.453072,-91625.021561
14068.570365,1036.288319,8142.265362,-69561.471218
14068.573135,-2072.576638,14211.954086,-66497.089226
14068.575905,-8290.306550,6661.853478,-82125.437386
14068.578675,7402.059420,-592.164754,-84883.381178
14068.581445,-4737.318029,-4293.194464,-90246.049664
14068.584215,-15100.201217,3701.029710,-78601.398095
14068.586984,5773.606348,7994.224174,-69561.471218
14068.589754,2516.700203,-2664.741391,-74770.920605
14068.592524,888.247130,5921.647536,-72779.072310
14068.595294,8882.471304,3997.112087,-61594.078039
14068.598064,5033.400406,148.041188,-68335.718422
14068.600834,2072.576638,7550.100608,-47038.263577
14068.603604,1776.494261,4885.359217,-51788.055665
14068.606374,15692.365970,-5181.441594,-74924.139704
14068.609144,12731.542202,7105.977043,-59602.229744
14068.611914,1628.453072,28127.825796,-47651.139976
14068.614683,1184.329507,29016.072926,-33708.201912
14068.617453,296.082377,-2516.700203,-103422.892230
14068.620223,-2664.741391,-8586.388927,-124107.470676
14068.622993,-18061.024985,14952.160028,-71093.662214
14068.625763,1480.411884,21169.889941,-50715.521968
14068.628533,-20133.601622,7105.977043,-93003.993457
14068.631443,-25167.002028,3404.947333,-106640.493322
14068.634353,-14063.912898,-7698.141797,-129470.139162
14068.637263,-8882.471304,6513.812290,-82431.875585
14068.640173,-10807.006753,17912.983796,-51021.960167
14068.643083,3108.864956,7550.100608,-71553.319513
14068.645993,-4145.153275,1480.411884,-89633.173266
14068.648903,-2368.659014,-2072.576638,-93770.088955
14068.651813,-6069.688724,8438.347739,-60674.763442
14068.654723,7402.059420,11547.212695,-49336.550071
14068.657633,-5181.441594,2516.700203,-65118.117330
14068.660543,-888.247130,4293.194464,-78907.836294
14068.663453,9326.594869,4885.359217,-78294.959896
14068.666363,-4737.318029,10214.842000,-62360.173537
14068.669273,2516.700203,21465.972318,-53626.684860
14068.672183,-6069.688724,7846.182985,-72012.976812
14068.675093,-8142.265362,3404.947333,-88254.201370
14068.678003,3256.906145,2516.700203,-81665.780087
14068.680912,-8586.388927,8290.306550,-77222.426198
14068.683822,-8142.265362,10066.800811,-68642.156621
14068.686732,2220.617826,18653.189738,-66343.870127
14068.689642,-13175.665768,13323.706956,-75843.454302
14068.692552,-7846.182985,740.205942,-100358.510238
14068.695462,5625.565159,-7402.059420,-94229.746254
14068.698372,2812.782580,-10214.842000,-85955.914876
14068.701282,4885.359217,16284.530724,-43361.005187
14068.704192,6513.812290,19245.354492,-57916.819649
14068.707102,-10362.883188,-6809.894666,-114301.448302
14068.710012,-13915.871710,-1036.288319,-115680.420198
14068.712922,-1184.329507,6217.729913,-71706.538613
14068.715832,592.164754,11695.253884,-75537.016103
14068.718742,-13471.748144,11547.212695,-75537.016103
14068.721652,-8882.471304,-3701.029710,-100052.072039
14068.724658,-8290.306550,-1776.494261,-96374.813648
14068.727664,-1332.370696,5181.441594,-65884.212828
14068.730669,2220.617826,7994.224174,-67263.184724
14068.733675,-1776.494261,5181.441594,-62513.392637
14068.736681,-6069.688724,1776.494261,-82738.313784
14068.739687,-6809.894666,0.000000,-82125.437386
14068.742692,4293.194464,6809.894666,-60981.201641
14068.745698,11399.171507,9030.512492,-59908.667944
14068.748704,3701.029710,5033.400406,-67876.061123
14068.751710,-9178.553681,-6365.771101,-76609.549800
14068.754715,5921.647536,2220.617826,-70021.128517
14068.757721,11103.089130,7846.182985,-56844.285952
14068.760727,-3849.070898,9030.512492,-62666.611736
14068.763733,5033.400406,6365.771101,-78907.836294
14068.766738,-2516.700203,-296.082377,-87488.105872
14068.769744,-9474.636058,-3108.864956,-89173.515967
14068.772750,7402.059420,8586.388927,-62053.735338
14068.775756,-9770.718434,6365.771101,-52707.370262
14068.778761,-9918.759623,-6957.935855,-77375.645298
14068.781767,11103.089130,-9770.718434,-100358.510238
14068.784773,12139.377449,-1776.494261,-57916.819649
14068.787779,8734.430116,27091.537477,-5515.887586
14068.790784,-3997.112087,15692.365970,-40756.280494
14068.793790,2960.823768,-9474.636058,-110011.313513
14068.796856,-5477.523971,1332.370696,-100664.948437
14068.799921,9770.718434,6069.688724,-68335.718422
14068.802986,8734.430116,22798.343014,-25434.370534
14068.806052,-5181.441594,13767.830521,-56844.285952
14068.809117,-9474.636058,-3256.906145,-112922.476405
14068.812183,-14063.912898,-1480.411884,-108019.465218
14068.815248,-1184.329507,15840.407159,-64964.898230
14068.818314,4885.359217,18949.272115,-52707.370262
14068.821379,-15248.242405,11991.336260,-72319.415011
14068.824445,-13323.706956,-5329.482782,-112616.038206
14068.827510,1332.370696,-7846.182985,-101277.824836
14068.830576,-9326.594869,9622.677246,-58223.257848
14068.833641,-7254.018232,9918.759623,-48264.016374
14068.836706,6069.688724,13323.706956,-60215.106143
14068.839772,-10807.006753,2812.782580,-83504.409282
14068.842837,-7846.182985,8734.430116,-84730.162079
14068.845903,2072.576638,11843.295072,-66803.527426
14068.848968,-6365.771101,11695.253884,-64198.802732
14068.852034,-1332.370696,5625.565159,-72166.195912
14068.855099,2664.741391,7550.100608,-79214.274493
14068.858165,-9474.636058,8882.471304,-80899.684589
14068.861230,4145.153275,8290.306550,-69101.813920
14068.864296,4885.359217,16728.654289,-53933.123059
14068.867361,-14211.954086,11843.295072,-71246.881314
14068.870427,-9622.677246,3404.947333,-85802.695776
14068.873492,-11547.212695,-8438.347739,-111849.942708
14068.876557,5773.606348,-8142.265362,-89479.954166
14068.879623,1184.329507,15692.365970,-37232.241203
14068.882688,-2368.659014,12583.501014,-45199.634382
14068.885754,-3256.906145,-3256.906145,-92697.555258
14068.888819,3256.906145,-7105.977043,-95761.937250
14068.891885,7698.141797,-740.205942,-80440.027290
14068.894875,3997.112087,7254.018232,-56537.847752
14068.897858,2960.823768,9030.512492,-59908.667944
14068.900840,1332.370696,1776.494261,-85955.914876
14068.903822,-11547.212695,-1480.411884,-93310.431656
14068.906804,-1776.494261,3997.112087,-83657.628382
14068.909787,-444.123565,8142.265362,-66190.651027
14068.912769,-6809.894666,9474.636058,-68642.156621
14068.915751,-3997.112087,5477.523971,-85802.695776
14068.918733,6069.688724,-296.082377,-86568.791274
14068.921716,-2960.823768,-2072.576638,-86722.010374
14068.924698,-6809.894666,4885.359217,-70480.785816
14068.927680,444.123565,-1184.329507,-68488.937521
14068.930662,6513.812290,-3404.947333,-80133.589091
14068.933644,1924.535449,9770.718434,-73851.606007
14068.936627,5329.482782,3552.988522,-72625.853210
14068.939609,2516.700203,5625.565159,-71093.662214
14068.942591,-5329.482782,7105.977043,-69867.909418
14068.945573,12435.459826,-4145.153275,-85343.038477
14068.948556,-3997.112087,9326.594869,-77682.083497
14068.951538,-23834.631332,14656.077652,-74617.701505
14068.954520,-18061.024985,-7550.100608,-106793.712421
14068.957502,-21021.848753,-7402.059420,-120736.650485
14068.960485,3552.988522,3108.864956,-78294.959896
14068.963467,-8142.265362,21169.889941,-27119.780629
14068.966449,-8290.306550,15692.365970,-47344.701776
14068.969431,-2516.700203,-592.164754,-95149.060852
14068.972414,2516.700203,-4145.153275,-85496.257577
14068.975396,-3997.112087,4589.276840,-65424.555529
14068.978378,14359.995275,23834.631332,-27885.876127
14068.981360,-1184.329507,9770.718434,-56231.409553
14068.984342,-2516.700203,4885.359217,-94382.965354
14068.987325,4589.276840,2664.741391,-89633.173266
14068.990259,1480.411884,9030.512492,-61747.297139
14068.993193,296.082377,19689.478057,-51021.960167
14068.996128,-2664.741391,10955.047942,-62973.049936
14068.999062,-740.205942,-2516.700203,-103422.892230
14069.001996,-12287.418637,-3256.906145,-97294.128246
14069.004931,-7846.182985,12583.501014,-68488.937521
14069.007865,-12139.377449,16136.489536,-62206.954438
14069.010799,-4441.235652,14359.995275,-68642.156621
14069.013734,-8438.347739,-1776.494261,-89326.735067
14069.016668,-7846.182985,1036.288319,-91778.240660
14069.019602,-1332.370696,6957.935855,-66650.308326
14069.022536,2220.617826,11251.130318,-56997.505051
14069.025471,-21762.054695,14656.077652,-61900.516238
14069.028405,2516.700203,3404.947333,-86875.229473
14069.031339,5921.647536,148.041188,-85036.600278
14069.034274,-1480.411884,16432.571912,-56078.190454
14069.037208,2664.741391,15396.283594,-55924.971354
14069.040142,-3552.988522,-5477.523971,-99592.414740
14069.043077,-8586.388927,-16432.571912,-107559.807919
14069.046011,-296.082377,-3256.906145,-93310.431656
14069.048945,2664.741391,19393.395680,-47957.578175
14069.051880,4293.194464,11251.130318,-48876.892772
14069.054814,2072.576638,-1184.329507,-79980.369991
14069.057748,1184.329507,-7402.059420,-95761.937250
14069.060683,1776.494261,-7994.224174,-89786.392366
14069.063617,6513.812290,9326.594869,-53779.903960
14069.066551,4885.359217,15248.242405,-50102.645569
14069.069485,-1924.535449,3256.906145,-82278.656485
14069.072420,-3701.029710,-3552.988522,-93157.212557
14069.075354,-296.082377,3108.864956,-80899.684589
14069.078288,6661.853478,11103.089130,-70174.347617
14069.081223,6217.729913,5625.565159,-67109.965625
14069.084132,-8586.388927,-148.041188,-88100.982270
14069.087042,-3404.947333,-1332.370696,-91318.583362
14069.089952,2072.576638,444.123565,-75690.235202
14069.092862,-7698.141797,-1036.288319,-74158.044206
14069.095772,-9770.718434,4885.359217,-74770.920605
14069.098681,8290.306550,-740.205942,-80133.589091
14069.101591,-4145.153275,-1480.411884,-77222.426198
14069.104501,-16876.695478,12287.418637,-65118.117330
14069.107411,12879.583391,2664.741391,-75230.577904
14069.110320,8290.306550,-2516.700203,-79367.493593
14069.113230,-10362.883188,14656.077652,-73085.510509
14069.116140,-20133.601622,8586.388927,-89173.515967
14069.119050,-19245.354492,-3849.070898,-114914.324700
14069.121959,592.164754,4441.235652,-82125.437386
14069.124869,444.123565,21614.013506,-33708.201912
14069.127779,-6809.894666,19837.519246,-45506.072581
14069.130689,-7994.224174,10362.883188,-70634.004916
14069.133598,-5181.441594,-7402.059420,-94076.527154
14069.136508,-740.205942,4441.235652,-74004.825107
14069.139418,-1332.370696,22798.343014,-41062.718693
14069.142328,-5625.565159,13915.871710,-66497.089226
14069.145237,-3256.906145,7254.018232,-70634.004916
14069.148147,-1628.453072,4441.235652,-88867.077768
14069.151057,-3256.906145,2220.617826,-76456.330700
14069.153967,-4293.194464,10214.842000,-59295.791545
14069.156876,10955.047942,12139.377449,-61900.516238
14069.159786,-7994.224174,6513.812290,-69714.690318
14069.162696,-12583.501014,1628.453072,-88254.201370
14069.165606,-7846.182985,14063.912898,-77988.521696
14069.168515,148.041188,10066.800811,-71553.319513
14069.171425,-10510.924376,9326.594869,-69408.252119
14069.174335,-1776.494261,8290.306550,-70940.443115
14069.177338,-3552.988522,2368.659014,-77682.083497
14069.180341,-6069.688724,1184.329507,-73851.606007
14069.183344,-15840.407159,13027.624579,-65118.117330
14069.186348,-2516.700203,1776.494261,-75843.454302
14069.189351,-296.082377,7994.224174,-74158.044206
14069.192354,-6069.688724,18505.148550,-54086.342159
14069.195357,0.000000,11103.089130,-55618.533155
14069.198360,-15100.201217,4737.318029,-84576.942979
14069.201364,-2664.741391,-15840.407159,-109091.998915
14069.204367,740.205942,-2220.617826,-77375.645298
14069.207370,2812.782580,20281.642811,-35240.392908
14069.210373,12435.459826,15396.283594,-40449.842294
14069.213376,1036.288319,-148.041188,-65424.555529
14069.216380,-1776.494261,-2516.700203,-84270.504780
14069.219383,11399.171507,-1480.411884,-74158.044206
14069.222386,6069.688724,6661.853478,-59142.572446
14069.225389,6365.771101,10214.842000,-63739.145434
14069.228392,10066.800811,9622.677246,-68642.156621
14069.231395,-5329.482782,-148.041188,-96528.032748
14069.234399,-6957.935855,4589.276840,-91625.021561
14069.237402,592.164754,9622.677246,-75077.358804
14069.240405,-3997.112087,-2072.576638,-80593.246390
14069.243408,-4885.359217,3997.112087,-79061.055394
14069.246411,-5033.400406,-6809.894666,-86415.572174
14069.249415,0.000000,-8142.265362,-86568.791274
14069.252418,-11547.212695,7550.100608,-67569.622924
14069.255421,7402.059420,2664.741391,-70634.004916
14069.258424,444.123565,4293.194464,-76303.111601
14069.261427,592.164754,5625.565159,-72319.415011
14069.264431,9326.594869,-296.082377,-79673.931792
14069.267434,4589.276840,8586.388927,-72625.853210
14069.270437,-13471.748144,9918.759623,-72779.072310
14069.273414,-8882.471304,-3256.906145,-100664.948437
14069.276391,-8586.388927,1628.453072,-83504.409282
14069.279367,8882.471304,20577.725188,-32482.449115
14069.282344,592.164754,21614.013506,-32329.230016
14069.285321,-8438.347739,16580.613101,-55618.533155
14069.288298,-7254.018232,2368.659014,-100971.386636
14069.291275,-148.041188,-5773.606348,-96681.251848
14069.294252,-5921.647536,15988.448347,-53933.123059
14069.297228,1332.370696,24130.713709,-43514.224286
14069.300205,-3849.070898,11695.253884,-61747.297139
14069.303182,-11547.212695,592.164754,-91471.802461
14069.306159,-3108.864956,5181.441594,-85189.819378
14069.309136,4293.194464,7994.224174,-62666.611736
14069.312112,-8142.265362,11843.295072,-54086.342159
14069.315089,-13915.871710,13915.871710,-61134.420740
14069.318066,-7846.182985,-2664.741391,-94382.965354
14069.321043,-9622.677246,3552.988522,-87794.544071
14069.324020,1332.370696,15840.407159,-59908.667944
14069.326997,-5625.565159,14359.995275,-59295.791545
14069.329973,-3997.112087,12879.583391,-67876.061123
14069.332950,-740.205942,6069.688724,-81972.218286
14069.335927,-7550.100608,5625.565159,-84423.723880
14069.338904,-2368.659014,11103.089130,-71246.881314
14069.341881,7402.059420,10066.800811,-60674.763442
14069.344858,-10362.883188,12583.501014,-65577.774629
14069.347834,-14063.912898,14656.077652,-66037.431928
14069.350811,-3552.988522,-5033.400406,-94229.746254
14069.353788,3108.864956,-12139.377449,-91318.583362
14069.356765,11399.171507,14656.077652,-45506.072581
14069.359742,7254.018232,13323.706956,-40603.061394
14069.362719,-4293.194464,-1332.370696,-85343.038477
14069.365695,-11547.212695,-148.041188,-103729.330429
14069.368659,6513.812290,-5921.647536,-97447.347346
14069.371623,1184.329507,-592.164754,-75690.235202
14069.374587,-9030.512492,11103.089130,-56537.847752
14069.377551,-2072.576638,-1332.370696,-77682.083497
14069.380515,-888.247130,-6365.771101,-91471.802461
14069.383479,-9030.512492,-1036.288319,-88713.858668
14069.386443,-12139.377449,5181.441594,-67109.965625
14069.389407,-13767.830521,12583.501014,-62360.173537
14069.392371,-5625.565159,5773.606348,-81665.780087
14069.395335,-7698.141797,-2960.823768,-96068.375449
14069.398299,-13767.830521,-1184.329507,-102043.920334
14069.401263,-3404.947333,1628.453072,-82738.313784
14069.404227,-3849.070898,1924.535449,-68642.156621
14069.407191,-1036.288319,6661.853478,-71859.757712
14069.410155,6217.729913,-148.041188,-75690.235202
14069.413119,11251.130318,-296.082377,-60368.325242
14069.416083,-13619.789333,6957.935855,-60061.887043
14069.419047,14211.954086,8290.306550,-47038.263577
14069.422011,23538.548956,-4589.276840,-56691.066852
14069.424975,8142.265362,13175.665768,-52554.151163
14069.427939,-11843.295072,13767.830521,-70327.566716
14069.430903,-21614.013506,-444.123565,-110777.409011
14069.433867,-8586.388927,-4737.318029,-117519.049393
14069.436831,4737.318029,12139.377449,-86415.572174
14069.439795,-6217.729913,18357.107362,-45659.291681
14069.442759,-13471.748144,10807.006753,-62053.735338
14069.445723,-11399.171507,-7105.977043,-96681.251848
14069.448687,-4145.153275,-3552.988522,-99439.195640
14069.451651,-10066.800811,8586.388927,-90246.049664
14069.454615,-9326.594869,16728.654289,-61440.858940
14069.457579,-5181.441594,6661.853478,-72779.072310
14069.460543,-5477.523971,3997.112087,-87488.105872
14069.463594,4293.194464,3108.864956,-81818.999186
14069.466645,-8142.265362,-1776.494261,-76762.768900
14069.469696,-592.164754,13767.830521,-51328.398366
14069.472746,0.000000,13027.624579,-56997.505051
14069.475797,-5625.565159,6513.812290,-84117.285680
14069.478848,-3997.112087,10214.842000,-82278.656485
14069.481899,2072.576638,13767.830521,-66343.870127
14069.484950,-4441.235652,8586.388927,-66956.746525
14069.488001,-5181.441594,15544.324782,-66190.651027
14069.491051,-148.041188,8438.347739,-77835.302597
14069.494102,6513.812290,3404.947333,-81512.560987
14069.497153,-8586.388927,13323.706956,-65118.117330
14069.500204,-9622.677246,8438.347739,-79061.055394
14069.503255,-13027.624579,-5033.400406,-98979.538342
14069.506306,-2516.700203,-12287.418637,-109398.437114
14069.509356,15248.242405,5033.400406,-64045.583633
14069.512407,-7550.100608,15840.407159,-36312.926605
14069.515458,740.205942,8290.306550,-68029.280222
14069.518509,-7402.059420,-7254.018232,-82891.532884
14069.521560,4293.194464,-10807.006753,-108938.779816
14069.524611,1924.535449,2516.700203,-78601.398095
14069.527661,-2960.823768,9770.718434,-52400.932063
14069.530712,296.082377,5181.441594,-69561.471218
14069.533763,4145.153275,-3404.947333,-86875.229473
14069.536814,-1776.494261,-1924.535449,-89173.515967
14069.539865,-7550.100608,4589.276840,-71553.319513
14069.542916,3701.029710,21317.931130,-51481.617466
14069.545966,-296.082377,-1184.329507,-71706.538613
14069.549017,-3256.906145,-1184.329507,-91165.364262
14069.552068,1480.411884,888.247130,-78754.617194
14069.555119,-4441.235652,-3997.112087,-67416.403824
14069.558170,-5477.523971,5329.482782,-67263.184724
14069.561201,9918.759623,4441.235652,-69714.690318
14069.564232,5181.441594,0.000000,-77988.521696
14069.567264,-15840.407159,8290.306550,-71246.881314
14069.570295,6957.935855,3997.112087,-70634.004916
14069.573326,15692.365970,7105.977043,-70174.347617
14069.576358,-13915.871710,11103.089130,-73698.386908
14069.579389,-23242.466579,-3404.947333,-101124.605736
14069.582421,-10807.006753,-7994.224174,-102963.234931
14069.585452,1184.329507,7105.977043,-45965.729880
14069.588483,-1628.453072,22798.343014,-44280.319784
14069.591515,-6069.688724,20577.725188,-39683.746796
14069.594546,-17616.901420,4441.235652,-84117.285680
14069.597577,-1184.329507,-7105.977043,-95302.279951
14069.600609,3404.947333,8290.306550,-65271.336430
14069.603640,592.164754,24574.837274,-44280.319784
14069.606671,-888.247130,17024.736666,-51941.274764
14069.609703,-8734.430116,2220.617826,-80133.589091
14069.612734,-3256.906145,4441.235652,-87028.448573
14069.615765,-6661.853478,9622.677246,-78141.740796
14069.618797,-15100.201217,13323.706956,-73698.386908
14069.621828,-19985.560434,10510.924376,-83351.190182
14069.624859,-6365.771101,7402.059420,-96374.813648
14069.627891,-14508.036463,6661.853478,-101431.043935
14069.630922,-20133.601622,14952.160028,-77375.645298
14069.634021,592.164754,11103.089130,-65424.555529
14069.637119,-10510.924376,2220.617826,-72166.195912
14069.640218,-15988.448347,10214.842000,-76915.987999
14069.643317,-16876.695478,8438.347739,-81359.341888
14069.646415,-10214.842000,3997.112087,-85802.695776
14069.649514,3404.947333,5921.647536,-75383.797003
14069.652612,3849.070898,15396.283594,-57916.819649
14069.655711,-7698.141797,15544.324782,-67263.184724
14069.658810,-11103.089130,7846.182985,-75996.673402
14069.661908,-1776.494261,-14804.118840,-110470.970812
14069.665007,-4441.235652,-4589.276840,-92391.117059
14069.668106,2664.741391,17468.860231,-41982.033290
14069.671204,5329.482782,12287.418637,-49336.550071
14069.674303,1036.288319,4737.318029,-61900.516238
14069.677401,-6217.729913,-3404.947333,-85189.819378
14069.680500,-888.247130,-5477.523971,-89939.611465
14069.683599,-4885.359217,5477.523971,-62206.954438
14069.686697,5921.647536,9918.759623,-48876.892772
14069.689796,2812.782580,2072.576638,-75230.577904
14069.692895,-9622.677246,1184.329507,-83657.628382
14069.695993,3404.947333,148.041188,-77988.521696
14069.699092,14359.995275,1184.329507,-64811.679131
14069.702190,-1332.370696,6661.853478,-57610.381450
14069.705289,1332.370696,296.082377,-71246.881314
14069.708388,-1480.411884,-4885.359217,-88867.077768
14069.711486,7846.182985,-7402.059420,-84117.285680
14069.714585,10955.047942,5329.482782,-64505.240932
14069.717684,-2960.823768,9326.594869,-59602.229744
14069.720782,1036.288319,4441.235652,-72472.634111
14069.723881,5329.482782,5033.400406,-85343.038477
14069.726979,-20577.725188,6513.812290,-93923.308055
14069.730078,-30644.525999,4885.359217,-97907.004644
14069.733154,-19097.313304,-3256.906145,-116446.515696
14069.736230,-8438.347739,-1332.370696,-85036.600278
14069.739306,-3108.864956,26055.249158,-38151.555800
14069.742382,888.247130,16136.489536,-53473.465760
14069.745458,-17912.983796,4589.276840,-76456.330700
14069.748534,-6217.729913,-4441.235652,-88560.639569
14069.751609,9770.718434,1184.329507,-72625.853210
14069.754685,1036.288319,19837.519246,-51788.055665
14069.757761,-8290.306550,15840.407159,-61287.639840
14069.760837,-296.082377,296.082377,-77835.302597
14069.763913,-4885.359217,1036.288319,-91931.459760
14069.766989,-6217.729913,9178.553681,-71553.319513
14069.770065,-1776.494261,11103.089130,-58376.476948
14069.773141,-10807.006753,1628.453072,-68642.156621
14069.776217,-9918.759623,3404.947333,-76762.768900
14069.779293,-2812.782580,9474.636058,-85036.600278
14069.782369,-6365.771101,13767.830521,-78907.836294
14069.785445,-10362.883188,9178.553681,-65730.993728
14069.788520,1184.329507,6957.935855,-70021.128517
14069.791596,-9326.594869,4885.359217,-76149.892501
14069.794672,7402.059420,6069.688724,-63892.364533
14069.797748,6217.729913,7994.224174,-65730.993728
14069.800824,-17616.901420,18653.189738,-56078.190454
14069.803900,-8438.347739,4885.359217,-79827.150892
14069.806976,3849.070898,-13471.748144,-97140.909146
14069.810052,15396.283594,6217.729913,-58682.915147
14069.813128,9030.512492,14063.912898,-37079.022103
14069.816204,5181.441594,11399.171507,-37079.022103
14069.819280,-7846.182985,6365.771101,-75537.016103
14069.822355,9474.636058,-4737.318029,-95761.937250
14069.825431,9474.636058,-2812.782580,-77682.083497
14069.828507,-6661.853478,12879.583391,-52860.589362
14069.831646,444.123565,4441.235652,-74004.825107
14069.834784,6661.853478,148.041188,-80899.684589
14069.837923,-9474.636058,-2812.782580,-92850.774358
14069.841062,-2368.659014,9770.718434,-74158.044206
14069.844200,-1332.370696,7994.224174,-59755.448844
14069.847339,3997.112087,10658.965565,-66343.870127
14069.850478,-1184.329507,5477.523971,-70480.785816
14069.853616,-4441.235652,-6069.688724,-91012.145162
14069.856755,1628.453072,-5033.400406,-85189.819378
14069.859894,1924.535449,3849.070898,-67569.622924
14069.863032,11547.212695,3701.029710,-69408.252119
14069.866171,-7698.141797,7698.141797,-75843.454302
14069.869310,3256.906145,-148.041188,-74464.482406
14069.872448,15100.201217,-3108.864956,-71553.319513
14069.875587,13915.871710,13619.789333,-47497.920876
14069.878726,-11399.171507,15248.242405,-68488.937521
14069.881864,-31384.731941,2516.700203,-124413.908875
14069.885003,-7402.059420,-3701.029710,-131461.987457
14069.888142,2220.617826,3849.070898,-111696.723608
14069.891280,-16432.571912,20725.766376,-54392.780358
14069.894419,-14063.912898,17468.860231,-58836.134246
14069.897558,-9326.594869,-3997.112087,-103729.330429
14069.900697,-13175.665768,-6661.853478,-106027.616923
14069.903835,-2368.659014,15544.324782,-57303.943250
14069.906974,-4589.276840,13767.830521,-62973.049936
14069.910113,-3997.112087,8290.306550,-55158.875856
14069.913251,-2960.823768,3552.988522,-71553.319513
14069.916390,6661.853478,-888.247130,-83351.190182
14069.919529,-9770.718434,10955.047942,-62053.735338
14069.922667,-5921.647536,12139.377449,-56537.847752
14069.925806,-444.123565,17764.942608,-59295.791545
14069.928945,888.247130,13323.706956,-79214.274493
14069.932132,-444.123565,6513.812290,-81206.122788
14069.935319,-7105.977043,10807.006753,-70327.566716
14069.938507,-4589.276840,11843.295072,-64045.583633
14069.941694,13027.624579,12583.501014,-57763.600549
14069.944881,1036.288319,8734.430116,-61594.078039
14069.948069,-15100.201217,5033.400406,-74311.263306
14069.951256,5773.606348,-6513.812290,-85649.476676
14069.954443,15248.242405,-6957.935855,-65118.117330
14069.957631,13471.748144,7550.100608,-45812.510780
14069.960818,10214.842000,11251.130318,-37998.336701
14069.964006,1332.370696,-740.205942,-80440.027290
14069.967193,-16876.695478,-4441.235652,-99898.852939
14069.970380,11103.089130,2960.823768,-85649.476676
14069.973568,592.164754,6365.771101,-67416.403824
14069.976755,-10658.965565,9178.553681,-59908.667944
14069.979942,-7105.977043,1036.288319,-86415.572174
14069.983130,1332.370696,-7550.100608,-104801.864126
14069.986317,-12583.501014,6365.771101,-78754.617194
14069.989504,-3849.070898,17616.901420,-60827.982541
14069.992692,-11251.130318,7254.018232,-82431.875585
14069.995879,-3404.947333,1184.329507,-90399.268764
14069.999067,-5477.523971,-4145.153275,-103576.111330
14070.002254,-4293.194464,1184.329507,-85802.695776
14070.005441,1036.288319,4145.153275,-65577.774629
14070.008629,-1036.288319,8142.265362,-70940.443115
14070.011816,-7550.100608,2516.700203,-75690.235202
14070.015003,2072.576638,4293.194464,-87028.448573
14070.018191,-6957.935855,4293.194464,-81359.341888
14070.021378,-12583.501014,-1480.411884,-84423.723880
14070.024565,14359.995275,-3108.864956,-74464.482406
14070.027753,9326.594869,12731.542202,-49949.426470
14070.030940,-15248.242405,27831.743419,-33095.325514
14070.034093,-3849.070898,16580.613101,-49030.111872
14070.037246,3849.070898,148.041188,-96987.690047
14070.040399,-13619.789333,3701.029710,-93770.088955
14070.043552,1924.535449,16136.489536,-61287.639840
14070.046705,15692.365970,17024.736666,-50715.521968
14070.049858,-5921.647536,11399.171507,-67722.842023
14070.053011,-12583.501014,5329.482782,-95149.060852
14070.056164,-4589.276840,296.082377,-98826.319242
14070.059317,-10510.924376,5921.647536,-69714.690318
14070.062470,-1924.535449,17764.942608,-59295.791545
14070.065623,-14063.912898,9770.718434,-67109.965625
14070.068776,-9326.594869,740.205942,-90092.830565
14070.071928,-13471.748144,2220.617826,-94842.622652
14070.075081,-2960.823768,10955.047942,-77375.645298
14070.078234,-296.082377,14211.954086,-66037.431928
14070.081387,-8882.471304,14063.912898,-69867.909418
14070.084540,-4145.153275,1776.494261,-80440.027290
14070.087693,-3108.864956,6217.729913,-80899.684589
14070.090846,-2960.823768,14359.995275,-69714.690318
14070.093999,-7846.182985,4885.359217,-74004.825107
14070.097152,-1924.535449,-888.247130,-70480.785816
14070.100305,21910.095883,2220.617826,-55618.533155
14070.103458,13027.624579,12139.377449,-42135.252390
14070.106611,-7994.224174,12287.418637,-56691.066852
14070.109764,1480.411884,-148.041188,-105108.302326
14070.112917,-7402.059420,-6365.771101,-110317.751712
14070.116070,1184.329507,10214.842000,-69867.909418
14070.119223,6217.729913,10066.800811,-64198.802732
14070.122376,-3701.029710,7846.182985,-69561.471218
14070.125529,-12731.542202,-2516.700203,-91318.583362
14070.128682,740.205942,-1480.411884,-91165.364262
14070.131835,3256.906145,5181.441594,-68642.156621
14070.134963,-740.205942,15100.201217,-50562.302868
14070.138091,-5477.523971,8438.347739,-62360.173537
14070.141220,-4589.276840,-1332.370696,-85649.476676
14070.144348,888.247130,-2368.659014,-83504.409282
14070.147476,7994.224174,1184.329507,-62819.830836
14070.150605,148.041188,2812.782580,-58836.134246
14070.153733,7846.182985,2664.741391,-68795.375720
14070.156861,4145.153275,740.205942,-74617.701505
14070.159990,3256.906145,3552.988522,-74924.139704
14070.163118,10214.842000,19097.313304,-62360.173537
14070.166246,-1628.453072,16284.530724,-68948.594820
14070.169375,-24870.919651,-8290.306550,-107713.027019
14070.172503,-23094.425390,-2072.576638,-120430.212286
14070.175631,5921.647536,1480.411884,-113382.133704
14070.178760,-10807.006753,25315.043216,-48570.454573
14070.181888,-3997.112087,27091.537477,-41522.375992
14070.185017,-9770.718434,1628.453072,-100664.948437
14070.188145,-12287.418637,-7698.141797,-106793.712421
14070.191273,-3108.864956,-1332.370696,-98979.538342
14070.194402,6513.812290,14211.954086,-61287.639840
14070.197530,-10955.047942,18949.272115,-52094.493864
14070.200658,-11547.212695,5921.647536,-77069.207099
14070.203787,3552.988522,-6217.729913,-92084.678860
14070.206915,-296.082377,10214.842000,-67109.965625
14070.210043,-7105.977043,11103.089130,-57916.819649
14070.213172,-9622.677246,13471.748144,-49796.207370
14070.216300,-1184.329507,10955.047942,-71400.100414
14070.219428,4441.235652,3256.906145,-86568.791274
14070.222557,-10807.006753,9030.512492,-77835.302597
14070.225685,-11103.089130,13471.748144,-63279.488135
14070.228813,6365.771101,19245.354492,-62053.735338
14070.231942,-1924.535449,13175.665768,-71859.757712
14070.235053,-7402.059420,3404.947333,-94382.965354
14070.238164,17468.860231,-2220.617826,-88254.201370
14070.241276,5033.400406,5329.482782,-55158.875856
14070.244387,3997.112087,19245.354492,-33554.982812
14070.247498,9622.677246,9030.512492,-77222.426198
14070.250609,-10658.965565,-9474.636058,-129163.700963
14070.253720,-15692.365970,-592.164754,-103422.892230
14070.256832,5329.482782,8438.347739,-63739.145434
14070.259943,-4145.153275,4441.235652,-59295.791545
14070.263054,-12139.377449,1628.453072,-78141.740796
14070.266165,-10214.842000,-6957.935855,-103422.892230
14070.269277,-296.082377,-2664.741391,-93003.993457
14070.272388,-888.247130,8882.471304,-57457.162350
14070.275499,7254.018232,17320.819043,-57457.162350
14070.278610,-5181.441594,888.247130,-82738.313784
14070.281722,-2072.576638,-444.123565,-82891.532884
14070.284833,2220.617826,-3256.906145,-81052.903688
14070.287944,148.041188,4885.359217,-58376.476948
14070.291055,-148.041188,10510.924376,-54852.437657
14070.294167,-592.164754,-3701.029710,-82125.437386
14070.297278,-7550.100608,2072.576638,-89326.735067
14070.300389,10658.965565,5329.482782,-75843.454302
14070.303500,15396.283594,1332.370696,-71093.662214
14070.306612,6957.935855,9622.677246,-45659.291681
14070.309723,-1036.288319,20725.766376,-48570.454573
14070.312834,-14804.118840,8290.306550,-96528.032748
14070.315945,-12435.459826,-1776.494261,-125026.785274
14070.319056,-5329.482782,13619.789333,-86415.572174
14070.322168,-2516.700203,15248.242405,-69101.813920
14070.325279,-13027.624579,17024.736666,-62360.173537
14070.328390,-11843.295072,6957.935855,-91012.145162
14070.331501,-5477.523971,-5921.647536,-108172.684318
14070.334668,-8734.430116,4737.318029,-77682.083497
14070.337835,-17764.942608,14952.160028,-51328.398366
14070.341001,-5329.482782,10510.924376,-62053.735338
14070.344168,296.082377,8882.471304,-79367.493593
14070.347334,-4293.194464,1924.535449,-94382.965354
14070.350501,-13471.748144,9178.553681,-84117.285680
14070.353668,-11103.089130,15396.283594,-64811.679131
14070.356834,7698.141797,10955.047942,-69408.252119
14070.360001,-1184.329507,13471.748144,-83351.190182
14070.363167,-12139.377449,8586.388927,-91318.583362
14070.366334,-12139.377449,15544.324782,-82738.313784
14070.369501,-9178.553681,10658.965565,-76149.892501
14070.372667,1480.411884,9918.759623,-75996.673402
14070.375834,444.123565,14359.995275,-71706.538613
14070.379000,-5625.565159,4737.318029,-72932.291410
14070.382167,-16284.530724,-740.205942,-86568.791274
14070.385334,8142.265362,-9770.718434,-99745.633840
14070.388500,-2812.782580,-1184.329507,-76456.330700
14070.391667,-3404.947333,13915.871710,-45965.729880
14070.394833,7846.182985,8438.347739,-52707.370262
14070.398000,-4737.318029,888.247130,-69561.471218
14070.401167,-3404.947333,-7550.100608,-89020.296868
14070.404333,3997.112087,-1924.535449,-79061.055394
14070.407500,888.247130,14359.995275,-55771.752254
14070.410666,12287.418637,9622.677246,-62513.392637
14070.413833,12731.542202,9770.718434,-66956.746525
14070.416999,5477.523971,-444.123565,-84270.504780
14070.420166,11547.212695,3108.864956,-76303.111601
14070.423333,2072.576638,888.247130,-63126.269035
14070.426499,7846.182985,888.247130,-68182.499322
14070.429666,1332.370696,3997.112087,-80440.027290
14070.432832,-5329.482782,-3404.947333,-90092.830565
14070.436043,-3849.070898,148.041188,-78141.740796
14070.439254,-9326.594869,10066.800811,-75230.577904
14070.442465,-1332.370696,-3108.864956,-88254.201370
14070.445675,1184.329507,-7846.182985,-79061.055394
14070.448886,10066.800811,13767.830521,-52247.712964
14070.452097,2220.617826,24722.878463,-41215.937792
14070.455307,-4293.194464,12287.418637,-62819.830836
14070.458518,-888.247130,148.041188,-98673.100142
14070.461729,-2516.700203,4293.194464,-91471.802461
14070.464940,-6809.894666,11843.295072,-59449.010645
14070.468150,-592.164754,15100.201217,-60827.982541
14070.471361,3997.112087,10807.006753,-68182.499322
14070.474572,-9326.594869,2664.741391,-85343.038477
14070.477782,-7402.059420,3997.112087,-80440.027290
14070.480993,-1628.453072,7105.977043,-64505.240932
14070.484204,-2960.823768,5329.482782,-63279.488135
14070.487414,-3256.906145,9030.512492,-79214.274493
14070.490625,-9030.512492,3849.070898,-85036.600278
14070.493836,-4293.194464,7402.059420,-77222.426198
14070.497047,-2812.782580,13915.871710,-63279.488135
14070.500257,-10510.924376,14211.954086,-66803.527426
14070.503468,-12879.583391,8734.430116,-72779.072310
14070.506679,10658.965565,3552.988522,-70021.128517
14070.509889,-4293.194464,6661.853478,-66650.308326
14070.539087,3256.906145,1332.370696,-83351.190182
14070.542331,-740.205942,10362.883188,-60521.544342
14070.545575,592.164754,5329.482782,-77069.207099
14070.548820,-2664.741391,1184.329507,-77988.521696
14070.552064,-888.247130,2368.659014,-90705.706963
14070.555308,2812.782580,1184.329507,-83197.971083
14070.558552,-3404.947333,11695.253884,-69101.813920
14070.561796,1036.288319,-2368.659014,-75077.358804
14070.565040,2664.741391,-10362.883188,-91165.364262
14070.568285,-3552.988522,-1628.453072,-85802.695776
14070.571529,1184.329507,444.123565,-76762.768900
14070.574773,4145.153275,5329.482782,-68948.594820
14070.578017,-14952.160028,9326.594869,-73698.386908
14070.581261,1036.288319,0.000000,-91625.021561
14070.584505,9474.636058,-7254.018232,-77682.083497
14070.587750,3849.070898,18801.230927,-38457.994000
14070.590994,5329.482782,26943.496289,-22676.426741
14070.594238,2220.617826,13471.748144,-49796.207370
14070.597482,-6513.812290,3256.906145,-96528.032748
14070.600726,1924.535449,3997.112087,-99439.195640
14070.603970,444.123565,11991.336260,-64811.679131
14070.607215,-7698.141797,17912.983796,-59449.010645
14070.610459,2812.782580,10807.006753,-66803.527426
14070.613703,-3849.070898,5625.565159,-91318.583362
14070.616974,-16580.613101,1924.535449,-91625.021561
14070.620245,-5033.400406,7698.141797,-73238.729609
14070.623516,-9178.553681,10066.800811,-71246.881314
14070.626787,-8290.306550,3849.070898,-74770.920605
14070.630059,-3997.112087,3256.906145,-86415.572174
14070.633330,-8142.265362,7402.059420,-78601.398095
14070.636601,-5329.482782,17320.819043,-62513.392637
14070.639872,-2664.741391,8586.388927,-65271.336430
14070.643143,-12139.377449,15840.407159,-76303.111601
14070.646414,-3404.947333,9770.718434,-80593.246390
14070.649685,3997.112087,148.041188,-85343.038477
14070.652956,5181.441594,9770.718434,-68642.156621
14070.656228,7105.977043,15840.407159,-57763.600549
14070.659499,-148.041188,1480.411884,-81052.903688
14070.662770,-13619.789333,-13323.706956,-115833.639298
14070.666041,-2664.741391,-1924.535449,-121655.965082
14070.669312,-740.205942,7105.977043,-87641.324971
14070.672583,296.082377,10066.800811,-54545.999458
14070.675854,-3849.070898,6957.935855,-63739.145434
14070.679125,-3404.947333,-8438.347739,-98826.319242
14070.682397,-4589.276840,-6513.812290,-94536.184453
14070.685668,888.247130,4145.153275,-85955.914876
14070.688939,3256.906145,9918.759623,-57150.724151
14070.692210,5921.647536,10066.800811,-58070.038748
14070.695481,-296.082377,-2960.823768,-83504.409282
14070.698752,5921.647536,-2516.700203,-84270.504780
14070.702023,1924.535449,148.041188,-68335.718422
14070.705294,3701.029710,6365.771101,-60368.325242
14070.708565,1628.453072,2072.576638,-67569.622924
14070.711837,4737.318029,888.247130,-84576.942979
14070.715108,-8290.306550,-592.164754,-83657.628382
14070.718379,888.247130,-296.082377,-76609.549800
14070.721671,9622.677246,5625.565159,-55924.971354
14070.724962,14211.954086,15396.283594,-44739.977083
14070.728254,-5773.606348,25463.084405,-43207.786087
14070.731546,-14359.995275,296.082377,-93770.088955
14070.734838,-1332.370696,2368.659014,-115680.420198
14070.738129,-15100.201217,12435.459826,-79367.493593
14070.741421,-9918.759623,19245.354492,-59908.667944
14070.744713,2072.576638,17320.819043,-58682.915147
14070.748005,-8142.265362,3404.947333,-91778.240660
14070.751296,-12435.459826,3108.864956,-101737.482134
14070.754588,-1036.288319,6365.771101,-76762.768900
14070.757880,2368.659014,10658.965565,-56691.066852
14070.761172,-10510.924376,10807.006753,-53933.123059
14070.764463,4589.276840,10066.800811,-70634.004916
14070.767755,-6809.894666,6217.729913,-85802.695776
14070.771047,-1036.288319,5625.565159,-76915.987999
14070.774339,-296.082377,15840.407159,-57150.724151
14070.777630,444.123565,15692.365970,-66650.308326
14070.780922,9030.512492,14508.036463,-66190.651027
14070.784214,-3256.906145,5773.606348,-75383.797003
14070.787505,-14804.118840,1628.453072,-81052.903688
14070.790797,10214.842000,-5773.606348,-78601.398095
14070.794089,20725.766376,-740.205942,-55465.314055
14070.797381,-3108.864956,15396.283594,-47497.920876
14070.800672,4589.276840,11695.253884,-51634.836565
14070.803964,-1184.329507,-3404.947333,-93770.088955
14070.807256,-6217.729913,-3552.988522,-106487.274222
14070.810548,6809.894666,3701.029710,-84117.285680
14070.813839,8734.430116,5329.482782,-66343.870127
14070.817131,-12879.583391,1628.453072,-81052.903688
14070.820423,-4293.194464,8438.347739,-85189.819378
14070.823715,-444.123565,-2072.576638,-106027.616923
14070.827024,-9474.636058,-296.082377,-82891.532884
14070.830331,296.082377,14063.912898,-63739.145434
14070.833638,4885.359217,7105.977043,-79214.274493
14070.836946,-1184.329507,-5033.400406,-92697.555258
14070.840253,-4885.359217,-6661.853478,-94229.746254
14070.843560,2960.823768,-296.082377,-80440.027290
14070.846867,2072.576638,9178.553681,-69101.813920
14070.850174,7402.059420,1036.288319,-75077.358804
14070.853481,9770.718434,1924.535449,-80593.246390
14070.856788,-6513.812290,18653.189738,-65577.774629
14070.860096,-17024.736666,15396.283594,-62206.954438
14070.863403,-21465.972318,9030.512492,-98519.881043
14070.866710,-9474.636058,592.164754,-113228.914604
14070.870017,740.205942,9030.512492,-72012.976812
14070.873324,-5033.400406,23538.548956,-41062.718693
14070.876631,-14508.036463,12583.501014,-68642.156621
14070.879938,-7254.018232,6365.771101,-87488.105872
14070.883245,-9326.594869,-1184.329507,-95149.060852
14070.886553,-5773.606348,11695.253884,-65884.212828
14070.889860,-5625.565159,18357.107362,-47957.578175
14070.893167,-5181.441594,1036.288319,-71553.319513
14070.896474,-4885.359217,-2516.700203,-85649.476676
14070.899781,4589.276840,1332.370696,-88407.420469
14070.903088,1480.411884,14063.912898,-64658.460031
14070.906395,-7402.059420,20429.683999,-48570.454573
14070.909703,-5329.482782,10807.006753,-67569.622924
14070.913010,-3256.906145,3701.029710,-87794.544071
14070.916317,4737.318029,9474.636058,-71859.757712
14070.919624,1776.494261,10955.047942,-57150.724151
14070.922931,-11843.295072,9770.718434,-49183.330972
14070.926238,2516.700203,-8586.388927,-72166.195912
14070.929545,18505.148550,-7994.224174,-65271.336430
14070.932864,2368.659014,14804.118840,-37998.336701
14070.936182,5181.441594,9622.677246,-63585.926334
14070.939500,1776.494261,5329.482782,-63279.488135
14070.942818,-6069.688724,-6957.935855,-96528.032748
14070.946137,11251.130318,148.041188,-89786.392366
14070.949455,7698.141797,9030.512492,-61440.858940
14070.952773,-12435.459826,4589.276840,-71553.319513
14070.956091,5181.441594,148.041188,-101124.605736
14070.959410,-1480.411884,-3108.864956,-103269.673130
14070.962728,-8142.265362,-1332.370696,-86109.133975
14070.966046,6661.853478,12583.501014,-67876.061123
14070.969364,-888.247130,3256.906145,-79673.931792
14070.972682,-7994.224174,-6365.771101,-94229.746254
14070.976001,-1332.370696,-3997.112087,-84576.942979
14070.979319,2368.659014,-592.164754,-84117.285680
14070.982637,2664.741391,5921.647536,-64198.802732
14070.985955,-5625.565159,8882.471304,-66190.651027
14070.989274,3256.906145,-6661.853478,-86568.791274
14070.992592,11695.253884,-3108.864956,-71706.538613
14070.995910,11843.295072,8142.265362,-52554.151163
14070.999228,3997.112087,34937.720462,-20991.016645
14071.002547,1332.370696,12287.418637,-74770.920605
14071.005865,-1480.411884,-3552.988522,-121962.403282
14071.009183,-12435.459826,7698.141797,-94076.527154
14071.012501,296.082377,21021.848753,-59449.010645
14071.015819,3404.947333,20577.725188,-49949.426470
14071.019138,-8438.347739,6217.729913,-84576.942979
14071.022456,-15396.283594,-2220.617826,-110930.628110
14071.025774,-4737.318029,6365.771101,-94076.527154
14071.029092,-21317.931130,5773.606348,-65884.212828
14071.032411,-4737.318029,14063.912898,-72779.072310
14071.035729,-5477.523971,-1036.288319,-97907.004644
14071.039055,-9326.594869,-592.164754,-106334.055122
14071.042381,-12731.542202,11251.130318,-82891.532884
14071.045706,1036.288319,15100.201217,-58070.038748
14071.049032,-1480.411884,15100.201217,-62973.049936
14071.052358,-5477.523971,7105.977043,-82278.656485
14071.055684,4293.194464,148.041188,-86109.133975
14071.059010,13619.789333,592.164754,-72472.634111
14071.062335,13619.789333,7994.224174,-49030.111872
14071.065661,-3256.906145,10510.924376,-62819.830836
14071.068987,-6365.771101,-10510.924376,-104955.083226
14071.072313,-6809.894666,-6513.812290,-101277.824836
14071.075639,-592.164754,3256.906145,-90858.926063
14071.078964,-3108.864956,9918.759623,-59755.448844
14071.082290,-592.164754,8882.471304,-65424.555529
14071.085616,-6809.894666,-8586.388927,-94995.841752
14071.088942,-4441.235652,-3552.988522,-92237.897959
14071.092268,7550.100608,13915.871710,-63739.145434
14071.095594,5181.441594,8734.430116,-55771.752254
14071.098919,740.205942,9326.594869,-56844.285952
14071.102245,11991.336260,-1924.535449,-82431.875585
14071.105571,3997.112087,-9326.594869,-88713.858668
14071.108897,-9474.636058,2812.782580,-69255.033019
14071.112223,6661.853478,7402.059420,-56691.066852
14071.115548,6365.771101,8734.430116,-62973.049936
14071.118874,-11991.336260,3256.906145,-78448.178995
14071.122200,-9918.759623,-444.123565,-90092.830565
14071.125526,7550.100608,-3997.112087,-81052.903688
14071.128852,7846.182985,17468.860231,-43973.881585
14071.132178,-10807.006753,29904.320057,-47804.359075
14071.135503,2516.700203,13175.665768,-49489.769171
14071.138829,-4441.235652,-2368.659014,-105108.302326
14071.142155,-3701.029710,4441.235652,-96221.594549
14071.145486,-888.247130,20429.683999,-65271.336430
14071.148816,-4737.318029,19393.395680,-72779.072310
14071.152147,-8142.265362,9178.553681,-73085.510509
14071.155477,-17764.942608,-1332.370696,-106793.712421
14071.158808,-4441.235652,8586.388927,-103269.673130
14071.162138,-16728.654289,8734.430116,-76915.987999
14071.165469,-15692.365970,20873.807564,-77835.302597
14071.168799,-15248.242405,5181.441594,-105261.521425
14071.172130,-8438.347739,6069.688724,-109858.094413
14071.175460,-21614.013506,3701.029710,-112156.380907
14071.178791,-20873.807564,13915.871710,-87028.448573
14071.182121,-296.082377,12731.542202,-70480.785816
14071.185452,-10362.883188,6365.771101,-71706.538613
14071.188783,-19393.395680,5329.482782,-71553.319513
14071.192113,11103.089130,-6809.894666,-66343.870127
14071.195444,1924.535449,-7550.100608,-86875.229473
14071.198774,14508.036463,15248.242405,-39224.089498
14071.202105,18209.066173,14211.954086,-27579.437928
14071.205435,7846.182985,3404.947333,-64505.240932
14071.208766,9326.594869,-4589.276840,-83964.066581
14071.212096,10510.924376,4145.153275,-70940.443115
14071.215427,12435.459826,10510.924376,-57763.600549
14071.218757,13175.665768,6217.729913,-62973.049936
14071.222088,0.000000,3404.947333,-82891.532884
14071.225418,-4293.194464,-2664.741391,-96374.813648
14071.228749,2368.659014,1776.494261,-72472.634111
14071.232080,-4441.235652,3256.906145,-61594.078039
14071.235410,-5625.565159,-444.123565,-62206.954438
14071.238741,-3108.864956,148.041188,-83504.409282
14071.242071,-6957.935855,-13323.706956,-97907.004644
14071.245402,-5033.400406,2072.576638,-75230.577904
14071.248732,12731.542202,6661.853478,-59449.010645
14071.252007,2812.782580,-1628.453072,-64505.240932
14071.255282,-3404.947333,2664.741391,-62819.830836
14071.258556,-5477.523971,17912.983796,-62513.392637
14071.261831,-18061.024985,14211.954086,-89326.735067
14071.265106,-9770.718434,2516.700203,-110930.628110
14071.268380,-5329.482782,15988.448347,-83657.628382
14071.271655,-2072.576638,15840.407159,-68642.156621
14071.274930,-1628.453072,14359.995275,-60368.325242
14071.278204,-9622.677246,13027.624579,-79367.493593
14071.281479,-4441.235652,444.123565,-99285.976541
14071.284754,-5181.441594,3404.947333,-85649.476676
14071.288029,-2516.700203,15840.407159,-61287.639840
14071.291303,-3256.906145,9030.512492,-58223.257848
14071.294578,-4441.235652,9030.512492,-70787.224015
14071.297853,-4145.153275,4293.194464,-84883.381178
14071.301127,-11103.089130,10955.047942,-77528.864398
14071.304402,-3997.112087,17024.736666,-68335.718422
14071.307677,-5033.400406,11843.295072,-75077.358804
14071.310951,-4589.276840,4589.276840,-81206.122788
14071.314226,-4441.235652,4885.359217,-84730.162079
14071.317501,-15840.407159,10658.965565,-68182.499322
14071.320775,-13323.706956,-5625.565159,-75690.235202
14071.324050,13767.830521,-8734.430116,-72012.976812
14071.327325,21021.848753,11695.253884,-43207.786087
14071.330600,296.082377,4441.235652,-39836.965896
14071.333874,6957.935855,9326.594869,-44433.538884
14071.337149,8142.265362,-2072.576638,-74924.139704
14071.340424,5033.400406,-4885.359217,-81818.999186
14071.343698,7550.100608,9474.636058,-62513.392637
14071.346973,444.123565,5329.482782,-66343.870127
14071.350248,-4145.153275,592.164754,-88560.639569
14071.353522,1332.370696,-1036.288319,-88713.858668
14071.356797,4293.194464,-1924.535449,-79980.369991
14071.360072,7698.141797,5625.565159,-63739.145434
14071.363346,4441.235652,5181.441594,-66343.870127
14071.366621,-6957.935855,-2664.741391,-86875.229473
14071.369896,-2960.823768,-8142.265362,-98060.223744
14071.373171,8734.430116,-2072.576638,-89939.611465
14071.376445,-7846.182985,8882.471304,-74004.825107
14071.379720,-19245.354492,6365.771101,-78601.398095
14071.382950,6809.894666,-4145.153275,-92084.678860
14071.386181,4885.359217,5033.400406,-62053.735338
14071.389411,-6809.894666,16580.613101,-42748.128788
14071.392642,4737.318029,18801.230927,-36772.583904
14071.395872,-1036.288319,4441.235652,-75077.358804
14071.399103,-6661.853478,444.123565,-90399.268764
14071.402333,10658.965565,13767.830521,-67722.842023
14071.405564,-2812.782580,16728.654289,-53320.246661
14071.408794,-1924.535449,10955.047942,-49030.111872
14071.412025,1480.411884,11695.253884,-72012.976812
14071.415255,-8586.388927,1480.411884,-93923.308055
14071.418486,-7994.224174,5181.441594,-80593.246390
14071.421716,-4441.235652,13323.706956,-63892.364533
14071.424947,-7105.977043,9474.636058,-80593.246390
14071.428177,-11399.171507,9178.553681,-80593.246390
14071.431408,-5773.606348,6513.812290,-86109.133975
14071.434638,-8438.347739,11991.336260,-70940.443115
14071.437869,-4145.153275,13027.624579,-67109.965625
14071.441100,-444.123565,5625.565159,-82431.875585
14071.444330,10066.800811,148.041188,-84730.162079
14071.447561,19985.560434,-5181.441594,-62819.830836
14071.450791,1184.329507,17616.901420,-42594.909689
14071.454022,-6217.729913,3849.070898,-85802.695776
14071.457252,-5033.400406,-3849.070898,-122728.498780
14071.460447,-592.164754,1924.535449,-100664.948437
14071.463642,-7105.977043,7105.977043,-67876.061123
14071.466838,-3256.906145,7994.224174,-64964.898230
14071.470033,592.164754,2960.823768,-77835.302597
14071.473228,-5033.400406,-5033.400406,-93157.212557
14071.476423,1036.288319,5181.441594,-77988.521696
14071.479619,9326.594869,6957.935855,-62666.611736
14071.482814,1924.535449,3849.070898,-68642.156621
14071.486009,-3701.029710,740.205942,-75843.454302
14071.489204,3552.988522,-3108.864956,-80133.589091
14071.492400,-3256.906145,-5477.523971,-77682.083497
14071.495595,8586.388927,7254.018232,-61440.858940
14071.498790,-5033.400406,5181.441594,-64198.802732
14071.501985,-6513.812290,-2072.576638,-84117.285680
14071.505180,4293.194464,-3404.947333,-92697.555258
14071.508376,7698.141797,6069.688724,-55158.875856
14071.511571,4145.153275,28127.825796,-25587.589633
14071.514766,7846.182985,11695.253884,-58070.038748
14071.517961,-3997.112087,-1332.370696,-100664.948437
14071.521157,-3108.864956,4737.318029,-93770.088955
14071.524352,9622.677246,14211.954086,-68488.937521
14071.527547,1184.329507,17764.942608,-44893.196183
14071.530742,-4441.235652,8142.265362,-72012.976812
14071.533937,-4293.194464,2960.823768,-102963.234931
14071.537133,-21021.848753,-592.164754,-100971.386636
14071.540328,-13471.748144,14063.912898,-79520.712692
14071.543523,-2960.823768,15248.242405,-66803.527426
14071.546718,-11695.253884,9030.512492,-83504.409282
14071.549914,-21614.013506,5329.482782,-106487.274222
14071.553109,-5921.647536,7402.059420,-101584.263035
14071.556304,-1776.494261,9622.677246,-72625.853210
14071.559499,-7402.059420,15100.201217,-52860.589362
14071.562668,-16580.613101,11843.295072,-62513.392637
14071.565836,6069.688724,-10362.883188,-88713.858668
14071.569005,19837.519246,-14211.954086,-72166.195912
14071.572174,13471.748144,17468.860231,-23442.522239
14071.575342,9770.718434,12731.542202,-42135.252390
14071.578511,296.082377,-3256.906145,-97753.785545
14071.581679,9030.512492,-6069.688724,-87947.763170
14071.584848,6661.853478,-1184.329507,-86722.010374
14071.588017,6809.894666,13175.665768,-63279.488135
14071.591185,296.082377,7994.224174,-77222.426198
14071.594354,-16432.571912,-1924.535449,-104495.425927
14071.597522,2220.617826,-1628.453072,-104801.864126
14071.600691,2220.617826,1184.329507,-90858.926063
14071.603859,-11103.089130,2220.617826,-69714.690318
14071.607028,-2960.823768,2220.617826,-68335.718422
14071.610197,2664.741391,-9622.677246,-80593.246390
14071.613365,-6069.688724,-2368.659014,-81206.122788
14071.616534,4293.194464,-592.164754,-78448.178995
14071.619702,18061.024985,2812.782580,-64811.679131
14071.622871,5181.441594,12731.542202,-57303.943250
14071.626039,-18061.024985,10955.047942,-76609.549800
14071.629208,-8734.430116,-1776.494261,-110011.313513
14071.632377,-11843.295072,2812.782580,-94382.965354
14071.635545,-9770.718434,20429.683999,-46118.948980
14071.638714,-2368.659014,22946.384202,-57916.819649
14071.641882,-20577.725188,11547.212695,-76609.549800
14071.645051,-15988.448347,6365.771101,-90858.926063
14071.648220,-9178.553681,2664.741391,-79827.150892
14071.651388,-4589.276840,11695.253884,-56997.505051
14071.654557,-2516.700203,14359.995275,-61900.516238
14071.657725,-13619.789333,8290.306550,-73238.729609
14071.660894,-9918.759623,1036.288319,-90705.706963
14071.664094,-7698.141797,9474.636058,-78141.740796
14071.667295,-5625.565159,18209.066173,-54699.218557
14071.670495,-444.123565,17468.860231,-50255.864669
14071.673696,6661.853478,17024.736666,-57303.943250
14071.676896,-5625.565159,6957.935855,-69408.252119
14071.680097,-2220.617826,-444.123565,-73238.729609
14071.683297,25759.166782,4441.235652,-55924.971354
14071.686498,15840.407159,7254.018232,-44739.977083
14071.689698,-7254.018232,11103.089130,-68488.937521
14071.692899,12583.501014,3108.864956,-68182.499322
14071.696100,-1036.288319,-11547.212695,-111849.942708
14071.699300,-3997.112087,3552.988522,-86415.572174
14071.702501,7105.977043,11399.171507,-61134.420740
14071.705701,-13323.706956,2368.659014,-81665.780087
14071.708902,-11547.212695,-7698.141797,-104035.768628
14071.712102,-1332.370696,1480.411884,-100358.510238
14071.715303,-3108.864956,0.000000,-86722.010374
14071.718503,6217.729913,12287.418637,-67876.061123
14071.721704,-2664.741391,444.123565,-81052.903688
14071.724904,-3256.906145,-8438.347739,-103576.111330
14071.728105,-3404.947333,-4589.276840,-83657.628382
14071.731305,-1332.370696,5477.523971,-76915.987999
14071.734506,3404.947333,3701.029710,-61594.078039
14071.737706,10658.965565,3997.112087,-70787.224015
14071.740907,-2960.823768,9178.553681,-72319.415011
14071.744107,-31532.773129,10807.006753,-78601.398095
14071.747308,-7994.224174,14656.077652,-89479.954166
14071.750508,-9622.677246,6365.771101,-103576.111330
14071.753709,-23834.631332,9918.759623,-88254.201370
14071.756909,-5921.647536,21465.972318,-63279.488135
14071.760110,-7846.182985,10510.924376,-69408.252119
14071.763310,-17912.983796,4737.318029,-78448.178995
14071.766537,1184.329507,8142.265362,-71246.881314
14071.769763,7550.100608,8290.306550,-78141.740796
14071.772990,-4737.318029,6217.729913,-63126.269035
14071.776216,1776.494261,9178.553681,-57457.162350
14071.779443,3997.112087,2516.700203,-73545.167808
14071.782669,-11103.089130,8734.430116,-75077.358804
14071.785896,1480.411884,15248.242405,-68335.718422
14071.789122,-4441.235652,14359.995275,-60368.325242
14071.792349,-1184.329507,4145.153275,-69867.909418
14071.795575,-5773.606348,7846.182985,-71093.662214
14071.798802,-15248.242405,7254.018232,-70021.128517
14071.802028,2960.823768,-296.082377,-77375.645298
14071.805255,5477.523971,-7994.224174,-81512.560987
14071.808481,8438.347739,2812.782580,-61900.516238
14071.811708,1776.494261,6661.853478,-50255.864669
14071.814934,7698.141797,4885.359217,-72319.415011
14071.818161,-5921.647536,-3108.864956,-94229.746254
14071.821387,4293.194464,2664.741391,-85496.257577
14071.824614,8438.347739,6513.812290,-71706.538613
14071.827840,-1332.370696,1332.370696,-70327.566716
14071.831067,-5181.441594,6661.853478,-72779.072310
14071.834293,5625.565159,-3404.947333,-83504.409282
14071.837520,4589.276840,-4885.359217,-76303.111601
14071.840746,-3552.988522,7402.059420,-55312.094956
14071.843973,9622.677246,4885.359217,-55005.656756
14071.847199,-1776.494261,-1184.329507,-76456.330700
14071.850426,4737.318029,-3849.070898,-95149.060852
14071.853652,740.205942,5181.441594,-83197.971083
14071.856879,-17616.901420,4293.194464,-76609.549800
14071.860105,1776.494261,-1036.288319,-75843.454302
14071.863332,13027.624579,3997.112087,-52094.493864
14071.866558,-592.164754,13619.789333,-37538.679402
14071.869810,6365.771101,17912.983796,-31563.134518
14071.873058,592.164754,7994.224174,-71859.757712
14071.876305,-3108.864956,-592.164754,-98213.442844
14071.879553,1184.329507,12139.377449,-77988.521696
14071.882800,4293.194464,11547.212695,-55312.094956
14071.886047,5033.400406,10066.800811,-55005.656756
14071.889295,5773.606348,10066.800811,-68335.718422
14071.892542,-3849.070898,1184.329507,-87641.324971
14071.895790,-10510.924376,1184.329507,-80440.027290
14071.899037,-1480.411884,18505.148550,-62973.049936
14071.902285,888.247130,15988.448347,-57457.162350
14071.905532,-8734.430116,9030.512492,-80593.246390
14071.908779,3552.988522,5625.565159,-86262.353075
14071.912027,-4441.235652,7698.141797,-77682.083497
14071.915274,-16728.654289,6957.935855,-69408.252119
14071.918522,15840.407159,-2072.576638,-70787.224015
14071.921769,14211.954086,-11547.212695,-76915.987999
14071.925017,-888.247130,5921.647536,-52247.712964
14071.928264,3404.947333,6069.688724,-54086.342159
14071.931511,3849.070898,-2220.617826,-87028.448573
14071.934759,-2960.823768,-296.082377,-89173.515967
14071.938006,5477.523971,8142.265362,-73545.167808
14071.941254,6957.935855,5773.606348,-68948.594820
14071.944501,-9178.553681,4441.235652,-75230.577904
14071.947749,3256.906145,7846.182985,-86415.572174
14071.950996,-3108.864956,1036.288319,-94076.527154
14071.954243,-1776.494261,8290.306550,-79827.150892
14071.957491,-7846.182985,6069.688724,-71093.662214
14071.960738,-7698.141797,-2812.782580,-81665.780087
14071.963986,-9622.677246,-1480.411884,-92391.117059
14071.967233,6809.894666,-3552.988522,-87488.105872
14071.970481,-9622.677246,6365.771101,-71553.319513
14071.973745,-13323.706956,13323.706956,-70787.224015
14071.977009,888.247130,-7846.182985,-93463.650756
14071.980273,-7698.141797,-9474.636058,-109551.656214
14071.983537,-6661.853478,14063.912898,-56691.066852
14071.986801,15396.283594,23538.548956,-24515.055936
14071.990065,-4589.276840,11251.130318,-53626.684860
14071.993329,444.123565,5181.441594,-79980.369991
14071.996593,5181.441594,5625.565159,-73085.510509
14071.999857,-4145.153275,9622.677246,-60521.544342
14072.003122,-5181.441594,18801.230927,-45506.072581
14072.006386,-2516.700203,7402.059420,-67263.184724
14072.009650,-6809.894666,592.164754,-100511.729338
14072.012914,-13471.748144,10066.800811,-82891.532884
14072.016178,-6513.812290,18653.189738,-64658.460031
14072.019442,-11103.089130,15248.242405,-64505.240932
14072.022706,-9030.512492,15396.283594,-71400.100414
14072.025970,-11843.295072,592.164754,-91625.021561
14072.029234,-9178.553681,7105.977043,-84270.504780
14072.032498,-14211.954086,15100.201217,-62206.954438
14072.035762,-3404.947333,2368.659014,-80133.589091
14072.039027,-3849.070898,-9326.594869,-102503.577632
14072.042291,10214.842000,-1480.411884,-80286.808190
14072.045555,7698.141797,4737.318029,-42135.252390
14072.048819,-740.205942,11103.089130,-44127.100685
14072.052083,8142.265362,-444.123565,-79214.274493
14072.055347,5921.647536,-6809.894666,-90858.926063
14072.058611,-444.123565,-888.247130,-81665.780087
14072.061875,6217.729913,6809.894666,-53320.246661
14072.065139,9918.759623,10510.924376,-56997.505051
14072.068403,1628.453072,1036.288319,-72779.072310
14072.071667,13767.830521,-1184.329507,-75537.016103
14072.074932,1480.411884,-3849.070898,-75230.577904
14072.078209,4885.359217,-740.205942,-62819.830836
14072.081487,5033.400406,4589.276840,-62819.830836
14072.084765,740.205942,-7698.141797,-82431.875585
14072.088042,7698.141797,-3404.947333,-82738.313784
14072.091320,4885.359217,11547.212695,-58070.038748
14072.094598,5625.565159,21169.889941,-42901.347888
14072.097875,-12583.501014,24870.919651,-63739.145434
14072.101153,-5329.482782,-592.164754,-117978.706692
14072.104431,-19541.436869,4145.153275,-123341.375178
14072.107708,-9474.636058,19689.478057,-79827.150892
14072.110986,-8438.347739,15248.242405,-69867.909418
14072.114264,-18357.107362,12731.542202,-75077.358804
14072.117541,-11547.212695,4293.194464,-98979.538342
14072.120819,-8290.306550,0.000000,-99439.195640
14072.124097,-21021.848753,6661.853478,-79980.369991
14072.127374,-8734.430116,15544.324782,-67416.403824
14072.130652,-7254.018232,7994.224174,-90246.049664
14072.133930,-10214.842000,1480.411884,-103729.330429
14072.137207,-13619.789333,7994.224174,-92391.117059
14072.140485,2368.659014,10807.006753,-67876.061123
14072.143763,-10658.965565,10658.965565,-60061.887043
14072.147040,-13471.748144,8882.471304,-66037.431928
14072.150318,4145.153275,-10658.965565,-81206.122788
14072.153596,18505.148550,-5033.400406,-48723.673673
14072.156873,2664.741391,12583.501014,-41982.033290
14072.160151,8142.265362,8586.388927,-30797.039020
14072.163429,2368.659014,2812.782580,-69867.909418
14072.166706,7254.018232,-3849.070898,-88100.982270
14072.169984,7402.059420,-1036.288319,-73085.510509
14072.173262,4885.359217,15544.324782,-49642.988270
14072.176539,8290.306550,13915.871710,-49183.330972
14072.179817,-3108.864956,2960.823768,-75843.454302
14072.183105,740.205942,444.123565,-92391.117059
14072.186392,1924.535449,-148.041188,-78448.178995
14072.189680,-3849.070898,888.247130,-66803.527426
14072.192967,-4885.359217,-1036.288319,-66497.089226
14072.196255,15100.201217,4885.359217,-73238.729609
14072.199542,-14804.118840,-9178.553681,-90092.830565
14072.202830,1184.329507,-2516.700203,-82891.532884
14072.206118,11103.089130,10362.883188,-52247.712964
14072.209405,-10066.800811,17764.942608,-49642.988270
14072.212693,-19541.436869,26647.413912,-51328.398366
14072.215980,2072.576638,1924.535449,-102656.796732
14072.219268,-12287.418637,-1184.329507,-119357.678588
14072.222555,-14508.036463,16136.489536,-74311.263306
14072.225843,-9178.553681,17024.736666,-57916.819649
14072.229131,-13619.789333,8290.306550,-85649.476676
14072.232418,-5921.647536,3256.906145,-98366.661943
14072.235706,-9326.594869,-1628.453072,-93463.650756
14072.238993,-9622.677246,7994.224174,-72932.291410
14072.242281,-8290.306550,13323.706956,-57763.600549
14072.245568,-5773.606348,7254.018232,-74924.139704
14072.248856,3701.029710,6809.894666,-86568.791274
14072.252143,-5033.400406,16136.489536,-81818.999186
14072.255431,1480.411884,9326.594869,-65424.555529
14072.258719,-11991.336260,12435.459826,-70174.347617
14072.262014,-12879.583391,15840.407159,-79980.369991
14072.265310,-6661.853478,-7994.224174,-99439.195640
14072.268606,-2368.659014,-7402.059420,-83197.971083
14072.271902,7254.018232,1628.453072,-79980.369991
14072.275197,3404.947333,6513.812290,-44893.196183
14072.278493,-7698.141797,8882.471304,-54852.437657
14072.281789,2220.617826,-2812.782580,-85343.038477
14072.285085,8734.430116,-7402.059420,-89326.735067
14072.288381,-6809.894666,-6069.688724,-81972.218286
14072.291676,-1924.535449,12435.459826,-50255.864669
14072.294972,3256.906145,7698.141797,-63739.145434
14072.298268,-1924.535449,-3849.070898,-85496.257577
14072.301564,-1332.370696,0.000000,-76456.330700
14072.304860,10066.800811,-148.041188,-60674.763442
14072.308155,444.123565,3701.029710,-52094.493864
14072.311451,11103.089130,3997.112087,-50715.521968
14072.314747,10955.047942,5033.400406,-73545.167808
14072.318043,-17764.942608,8734.430116,-84883.381178
14072.321338,-1628.453072,-1332.370696,-86875.229473
14072.324634,-1924.535449,-592.164754,-66956.746525
14072.327930,-2812.782580,12731.542202,-58529.696047
14072.331226,10807.006753,18949.272115,-31103.477219
14072.334522,0.000000,13323.706956,-54239.561258
14072.337817,-5921.647536,3701.029710,-79980.369991
14072.341113,-2220.617826,4145.153275,-82125.437386
14072.344409,-4293.194464,11991.336260,-71553.319513
14072.347705,-7254.018232,10955.047942,-59295.791545
14072.351001,2072.576638,10066.800811,-69101.813920
14072.354296,-13619.789333,1924.535449,-87641.324971
14072.357592,-12287.418637,10955.047942,-74158.044206
14072.360888,10955.047942,14656.077652,-60061.887043
14072.364184,-5329.482782,10510.924376,-68029.280222
14072.367485,-6365.771101,10955.047942,-66650.308326
14072.370785,-296.082377,6513.812290,-79214.274493
14072.374086,-7402.059420,4737.318029,-81512.560987
14072.377387,11695.253884,-1776.494261,-67876.061123
14072.380688,23242.466579,-2812.782580,-54545.999458
14072.383989,-2072.576638,6957.935855,-54545.999458
14072.387290,7550.100608,1924.535449,-61900.516238
14072.390591,1332.370696,-4737.318029,-93003.993457
14072.393891,-3256.906145,-1776.494261,-91165.364262
14072.397192,5921.647536,9030.512492,-65884.212828
14072.400493,-3849.070898,9178.553681,-64658.460031
14072.403794,-4737.318029,-444.123565,-89633.173266
14072.407095,3552.988522,3849.070898,-87641.324971
14072.410396,5033.400406,-1776.494261,-93463.650756
14072.413696,-8438.347739,3404.947333,-79980.369991
14072.416997,6217.729913,3552.988522,-72166.195912
14072.420298,-4145.153275,-4885.359217,-85036.600278
14072.423599,148.041188,-740.205942,-87334.886772
14072.426900,3256.906145,7698.141797,-79520.712692
14072.430201,-18801.230927,7698.141797,-83657.628382
14072.433502,-8734.430116,-1924.535449,-94842.622652
14072.436802,6513.812290,2368.659014,-67876.061123
14072.440103,2220.617826,24870.919651,-31409.915418
14072.443404,3256.906145,18061.024985,-49949.426470
14072.446705,888.247130,17172.777854,-53473.465760
14072.450006,-2072.576638,888.247130,-91165.364262
14072.453307,-7105.977043,3256.906145,-88867.077768
14072.456608,740.205942,17764.942608,-62053.735338
14072.459908,-8290.306550,11103.089130,-75383.797003
14072.463209,-9474.636058,5921.647536,-94842.622652
14072.466510,-2664.741391,4293.194464,-84730.162079
14072.469811,-13323.706956,6513.812290,-84117.285680
14072.473115,-10807.006753,18653.189738,-75077.358804
14072.476419,-13027.624579,13175.665768,-84576.942979
14072.479723,-16580.613101,1480.411884,-101431.043935
14072.483028,-7698.141797,12583.501014,-83351.190182
14072.486332,-22354.219448,11251.130318,-81512.560987
14072.489636,-9474.636058,-9918.759623,-78294.959896
14072.492940,13027.624579,-10066.800811,-63279.488135
14072.496244,9178.553681,8290.306550,-37385.460302
14072.499549,6809.894666,4737.318029,-47191.482677
14072.502853,-2220.617826,7994.224174,-54239.561258
14072.506157,11251.130318,-4885.359217,-74770.920605
14072.509461,5477.523971,-4441.235652,-68642.156621
14072.512765,9474.636058,15248.242405,-47038.263577
14072.516070,1184.329507,5477.523971,-64198.802732
14072.519374,1036.288319,-592.164754,-89020.296868
14072.522678,6809.894666,-444.123565,-86415.572174
14072.525982,4441.235652,-444.123565,-76303.111601
14072.529286,-1332.370696,-592.164754,-61134.420740
14072.532590,2072.576638,2960.823768,-61134.420740
14072.535895,10066.800811,-10807.006753,-81972.218286
14072.539199,13471.748144,888.247130,-78601.398095
14072.542503,-9918.759623,17172.777854,-63585.926334
14072.545807,-29460.196492,7994.224174,-70327.566716
14072.549111,-14063.912898,-2072.576638,-108172.684318
14072.552416,-2220.617826,7254.018232,-93923.308055
14072.555720,148.041188,13175.665768,-52707.370262
14072.559024,-4145.153275,23538.548956,-43207.786087
14072.562328,-888.247130,5625.565159,-55312.094956
14072.565632,-8142.265362,-2812.782580,-91625.021561
14072.568936,-6661.853478,3552.988522,-87028.448573
14072.572241,6217.729913,15544.324782,-59295.791545
14072.575545,-5181.441594,7105.977043,-61134.420740
14072.578803,-14508.036463,7994.224174,-73545.167808
14072.582061,1036.288319,8438.347739,-78601.398095
14072.585319,-2368.659014,8734.430116,-83197.971083
14072.588577,-5625.565159,19837.519246,-61440.858940
14072.591836,-9770.718434,15396.283594,-58682.915147
14072.595094,-3997.112087,6365.771101,-87028.448573
14072.598352,-4441.235652,13027.624579,-91165.364262
14072.601610,-13619.789333,4145.153275,-81052.903688
14072.604868,-7254.018232,-1628.453072,-97294.128246
14072.608127,-1184.329507,-9326.594869,-106334.055122
14072.611385,-4441.235652,-9178.553681,-81972.218286
14072.614643,-3404.947333,8438.347739,-56691.066852
14072.617901,0.000000,11547.212695,-62053.735338
14072.621159,-2220.617826,2368.659014,-69561.471218
14072.624417,-10510.924376,-5625.565159,-94382.965354
14072.627676,3997.112087,2960.823768,-85036.600278
14072.630934,7550.100608,5033.400406,-66497.089226
14072.634192,4589.276840,4589.276840,-61440.858940
14072.637450,11695.253884,-444.123565,-76456.330700
14072.640708,5921.647536,-1480.411884,-83657.628382
14072.643966,3701.029710,-4885.359217,-85036.600278
14072.647225,-1184.329507,9474.636058,-75077.358804
14072.650483,-13619.789333,8290.306550,-84883.381178
14072.653741,-3701.029710,-2220.617826,-95302.279951
14072.656999,-2072.576638,10510.924376,-58376.476948
14072.660257,592.164754,17468.860231,-40449.842294
14072.663515,3404.947333,18209.066173,-37385.460302
14072.666774,-4293.194464,11547.212695,-75383.797003
14072.670032,-13175.665768,1628.453072,-103269.673130
14072.673290,-4737.318029,8142.265362,-90092.830565
14072.676548,-2516.700203,16432.571912,-63739.145434
14072.679806,-5033.400406,10658.965565,-78754.617194
14072.683074,3849.070898,8290.306550,-77835.302597
14072.686341,-9030.512492,3849.070898,-81665.780087
14072.689609,-7698.141797,10362.883188,-79061.055394
14072.692877,-5181.441594,19985.560434,-77375.645298
14072.696144,-12435.459826,15396.283594,-88560.639569
14072.699412,-10214.842000,3997.112087,-97600.566445
14072.702679,-13323.706956,3701.029710,-104188.987728
14072.705947,-8882.471304,19689.478057,-79827.150892
14072.709215,-20281.642811,1332.370696,-91318.583362
14072.712482,-7846.182985,-10955.047942,-113382.133704
14072.715750,6365.771101,-5921.647536,-86109.133975
14072.719017,-6513.812290,-10362.883188,-83964.066581
14072.722285,-2812.782580,17172.777854,-38151.555800
14072.725553,4145.153275,9178.553681,-60061.887043
14072.728820,-888.247130,-7550.100608,-98213.442844
14072.732088,-3849.070898,1628.453072,-78907.836294
14072.735355,6809.894666,14211.954086,-49489.769171
14072.738623,2220.617826,13767.830521,-55924.971354
14072.741891,6513.812290,8290.306550,-61747.297139
14072.745158,4441.235652,-6809.894666,-84423.723880
14072.748426,-1184.329507,-3701.029710,-78294.959896
14072.751693,15248.242405,4145.153275,-52554.151163
14072.754961,-592.164754,8290.306550,-64198.802732
14072.758229,-14656.077652,12287.418637,-70327.566716
14072.761496,-6809.894666,592.164754,-104955.083226
14072.764764,-1924.535449,-2516.700203,-89939.611465
14072.768031,-10066.800811,21021.848753,-32635.668215
14072.771299,16876.695478,21465.972318,-34167.859211
14072.774567,-4145.153275,2516.700203,-90705.706963
14072.777834,-14508.036463,-148.041188,-85189.819378
14072.781102,1036.288319,-444.123565,-92544.336158
14072.784369,2812.782580,9326.594869,-72012.976812
14072.787598,-5477.523971,13915.871710,-62360.173537
14072.790826,1776.494261,6513.812290,-79673.931792
14072.794055,-8734.430116,2368.659014,-90858.926063
14072.797283,-2664.741391,1776.494261,-73085.510509
14072.800512,5181.441594,16136.489536,-52554.151163
14072.803740,-1184.329507,18653.189738,-61440.858940
14072.806969,-8142.265362,10066.800811,-89939.611465
14072.810197,-7402.059420,3108.864956,-102963.234931
14072.813425,15544.324782,-5033.400406,-85496.257577
14072.816654,13619.789333,11695.253884,-56537.847752
14072.819882,-3849.070898,10362.883188,-66956.746525
14072.823111,-4293.194464,-16432.571912,-120583.431385
14072.826339,-6217.729913,-10658.965565,-118131.925792
14072.829568,2220.617826,13915.871710,-65730.993728
14072.832796,-5625.565159,10807.006753,-58376.476948
14072.836025,-5921.647536,8142.265362,-70174.347617
14072.839253,-5773.606348,-3108.864956,-100358.510238
14072.842482,-7402.059420,-6069.688724,-99285.976541
14072.845710,1332.370696,12731.542202,-67263.184724
14072.848938,7254.018232,4737.318029,-68795.375720
14072.852167,-10214.842000,-2960.823768,-79367.493593
14072.855395,-15396.283594,-1628.453072,-97140.909146
14072.858624,5477.523971,-9918.759623,-97140.909146
14072.861852,6809.894666,-2516.700203,-72932.291410
14072.865081,2368.659014,23982.672521,-47344.701776
14072.868309,-23686.590144,14359.995275,-73545.167808
14072.871538,-23686.590144,8290.306550,-96681.251848
14072.874766,-10362.883188,3701.029710,-121962.403282
14072.877994,-13619.789333,10510.924376,-84576.942979
14072.881223,-9030.512492,21910.095883,-48570.454573
14072.884451,-9770.718434,13915.871710,-55158.875856
14072.887680,-9326.594869,-3108.864956,-81052.903688
14072.890882,1184.329507,4737.318029,-75077.358804
14072.894079,-444.123565,15544.324782,-74158.044206
14072.897276,-14211.954086,11843.295072,-57916.819649
14072.900473,-3849.070898,15396.283594,-64964.898230
14072.903670,-1776.494261,9770.718434,-82278.656485
14072.906867,-12287.418637,11695.253884,-80746.465489
14072.910063,-10214.842000,13767.830521,-83044.751983
14072.913260,-2960.823768,16284.530724,-68488.937521
14072.916457,-15692.365970,17320.819043,-71553.319513
14072.919654,-23982.672521,-2516.700203,-96681.251848
14072.922851,4145.153275,-9622.677246,-97600.566445
14072.926048,-592.164754,1480.411884,-58682.915147
14072.929245,-10214.842000,5181.441594,-51481.617466
14072.932442,-1628.453072,12731.542202,-43667.443386
14072.935639,-592.164754,-888.247130,-85649.476676
14072.938836,1036.288319,-3997.112087,-92237.897959
14072.942033,6957.935855,6661.853478,-57763.600549
14072.945229,9326.594869,11695.253884,-48570.454573
14072.948426,10066.800811,12879.583391,-47804.359075
14072.951623,9770.718434,-592.164754,-67416.403824
14072.954820,13323.706956,-8142.265362,-85189.819378
14072.958017,3849.070898,4589.276840,-72319.415011
14072.961214,13471.748144,3997.112087,-65730.993728
14072.964411,10214.842000,-296.082377,-81052.903688
14072.967608,-18949.272115,17616.901420,-65730.993728
14072.970805,-29608.237680,4145.153275,-95149.060852
14072.974002,-24722.878463,-2368.659014,-118131.925792
14072.977199,-8586.388927,11547.212695,-83964.066581
14072.980395,6513.812290,14063.912898,-50562.302868
14072.983592,-9178.553681,13471.748144,-53473.465760
14072.986789,-4737.318029,1184.329507,-71246.881314
14072.989986,-2516.700203,-1628.453072,-81972.218286
14072.993204,5773.606348,6661.853478,-65424.555529
14072.996422,9030.512492,16876.695478,-46731.825378
14072.999641,5477.523971,2516.700203,-64964.898230
14073.002859,-6217.729913,6217.729913,-75843.454302
14073.006077,2812.782580,17912.983796,-70480.785816
14073.009295,5033.400406,20873.807564,-67109.965625
14073.012513,-7550.100608,16876.695478,-70634.004916
14073.015731,-11843.295072,14211.954086,-79214.274493
14073.018949,-20429.683999,8142.265362,-89939.611465
14073.022167,-15840.407159,-4589.276840,-99745.633840
14073.025386,-7698.141797,-4885.359217,-107406.588820
14073.028604,-148.041188,-3108.864956,-87181.667672
14073.031822,-4145.153275,1332.370696,-55618.533155
14073.035040,3849.070898,6957.935855,-57150.724151
14073.038258,-5477.523971,-2960.823768,-93157.212557
14073.041476,6069.688724,-2812.782580,-93310.431656
14073.044694,5181.441594,1036.288319,-86568.791274
14073.047912,4885.359217,3552.988522,-61440.858940
14073.051131,8142.265362,7698.141797,-56844.285952
14073.054349,10066.800811,-2812.782580,-69867.909418
14073.057567,4293.194464,-9030.512492,-77375.645298
14073.060785,-4885.359217,7105.977043,-63585.926334
14073.064003,17172.777854,1332.370696,-66037.431928
14073.067221,17320.819043,-6365.771101,-58529.696047
14073.070439,6661.853478,13619.789333,-57303.943250
14073.073657,-21317.931130,14804.118840,-74464.482406
14073.076876,-23686.590144,2220.617826,-107406.588820
14073.080094,-10955.047942,11843.295072,-95149.060852
14073.083312,-16432.571912,9918.759623,-87947.763170
14073.086530,-7402.059420,12879.583391,-63585.926334
14073.089748,-14656.077652,7698.141797,-59602.229744
14073.092966,-4885.359217,1776.494261,-73698.386908
14073.096201,7105.977043,4589.276840,-72319.415011
14073.099436,-444.123565,8734.430116,-48417.235474
14073.102671,-13175.665768,8142.265362,-56537.847752
14073.105906,-7994.224174,10807.006753,-62513.392637
14073.109141,13619.789333,13767.830521,-59908.667944
14073.112376,11399.171507,15396.283594,-53779.903960
14073.115611,-3849.070898,15692.365970,-56691.066852
14073.118846,4737.318029,13471.748144,-71400.100414
14073.122081,21021.848753,5921.647536,-58989.353346
14073.125316,7105.977043,6661.853478,-66803.527426
14073.128551,2516.700203,3849.070898,-89326.735067
14073.131786,-1924.535449,-14359.995275,-116446.515696
14073.135021,-17172.777854,-6661.853478,-95302.279951
14073.138256,-5625.565159,11251.130318,-65424.555529
14073.141491,10807.006753,8734.430116,-74617.701505
14073.144726,-8734.430116,-2220.617826,-91012.145162
14073.147961,-11695.253884,-4441.235652,-96987.690047
14073.151197,-1628.453072,2516.700203,-87334.886772
14073.154432,-2960.823768,6217.729913,-67569.622924
14073.157667,2220.617826,2220.617826,-70787.224015
14073.160902,-9918.759623,-2368.659014,-82125.437386
14073.164137,-4145.153275,-6069.688724,-90705.706963
14073.167372,-2368.659014,2812.782580,-71553.319513
14073.170607,-10658.965565,4293.194464,-68182.499322
14073.173855,12287.418637,5181.441594,-74464.482406
14073.177103,6513.812290,5329.482782,-66037.431928
14073.180351,-4737.318029,22502.260637,-35087.173808
14073.183599,10807.006753,19985.560434,-41675.595091
14073.186848,4145.153275,13619.789333,-79520.712692
14073.190096,-19393.395680,5773.606348,-101277.824836
14073.193344,-8290.306550,7846.182985,-90399.268764
14073.196592,-1036.288319,12435.459826,-79214.274493
14073.199840,-1924.535449,8142.265362,-77988.521696
14073.203088,-18357.107362,7550.100608,-82125.437386
14073.206337,-10066.800811,8586.388927,-82891.532884
14073.209585,-11103.089130,4885.359217,-77988.521696
14073.212833,-8586.388927,20133.601622,-68642.156621
14073.216081,-1628.453072,11843.295072,-72932.291410
14073.219329,-11843.295072,6069.688724,-88867.077768
14073.222578,-20429.683999,11547.212695,-84423.723880
14073.225826,-5921.647536,-3108.864956,-92544.336158
14073.229074,8734.430116,-5181.441594,-88867.077768
14073.232322,7846.182985,3849.070898,-59449.010645
14073.235570,3997.112087,0.000000,-62819.830836
14073.238818,-4589.276840,6513.812290,-58376.476948
14073.242067,1036.288319,6069.688724,-77528.864398
14073.245315,2664.741391,-6069.688724,-84576.942979
14073.248563,1036.288319,5329.482782,-64352.021832
14073.251811,-296.082377,11547.212695,-49183.330972
14073.255059,8586.388927,5033.400406,-55771.752254
14073.258308,-3849.070898,-1776.494261,-68642.156621
14073.261556,2516.700203,-2220.617826,-73851.606007
14073.264804,5921.647536,-3404.947333,-70787.224015
14073.268052,-6513.812290,4589.276840,-66803.527426
14073.271300,18801.230927,-888.247130,-82891.532884
14073.274548,18209.066173,-3849.070898,-83657.628382
14073.277808,1480.411884,19097.313304,-60215.106143
14073.281067,-15396.283594,32124.937883,-53933.123059
14073.284326,7105.977043,9326.594869,-104495.425927
14073.287586,-28868.031738,3552.988522,-123034.936979
14073.290845,-17172.777854,7105.977043,-94689.403553
14073.294104,-7402.059420,2812.782580,-96681.251848
14073.297363,-17024.736666,13175.665768,-67263.184724
14073.300623,-10066.800811,10214.842000,-73851.606007
14073.303882,-12583.501014,-4885.359217,-93003.993457
14073.307141,-11103.089130,7994.224174,-74464.482406
14073.310400,-6661.853478,7698.141797,-75690.235202
14073.313660,-4589.276840,15248.242405,-63739.145434
14073.316919,888.247130,15988.448347,-65577.774629
14073.320178,-4293.194464,12287.418637,-71706.538613
14073.323438,-24870.919651,10807.006753,-70634.004916
14073.326697,3997.112087,-444.123565,-73851.606007
14073.329956,16284.530724,-2220.617826,-87181.667672
14073.333215,7698.141797,-3108.864956,-72166.195912
14073.336475,-296.082377,5625.565159,-50562.302868
14073.339734,4589.276840,7105.977043,-62513.392637
14073.342993,-5773.606348,-888.247130,-87334.886772
14073.346253,2516.700203,3552.988522,-83044.751983
14073.349512,9474.636058,4293.194464,-70021.128517
14073.352771,1184.329507,3256.906145,-65118.117330
14073.356030,3552.988522,9622.677246,-65118.117330
14073.359290,1184.329507,-4885.359217,-87641.324971
14073.362549,-9178.553681,-5773.606348,-90858.926063
14073.365808,-2516.700203,-888.247130,-71859.757712
14073.369067,-2812.782580,3256.906145,-73545.167808
14073.372327,-10510.924376,2516.700203,-81665.780087
14073.375586,6365.771101,-5625.565159,-89173.515967
14073.378845,2368.659014,15248.242405,-55005.656756
14073.382113,-12583.501014,36122.049970,-37232.241203
14073.385381,7105.977043,13471.748144,-79980.369991
14073.388650,6957.935855,4293.194464,-85955.914876
14073.391918,-12583.501014,296.082377,-107100.150620
14073.395186,3404.947333,10362.883188,-85189.819378
14073.398454,-7254.018232,12435.459826,-68182.499322
14073.401722,-12879.583391,11991.336260,-84883.381178
14073.404990,-7698.141797,1184.329507,-97600.566445
14073.408258,-13027.624579,3552.988522,-96221.594549
14073.411526,-16432.571912,11103.089130,-77375.645298
14073.414794,888.247130,18801.230927,-62206.954438
14073.418062,3997.112087,6365.771101,-78141.740796
14073.421330,-10807.006753,6809.894666,-77069.207099
14073.424599,-5625.565159,17764.942608,-62360.173537
14073.427867,10510.924376,2516.700203,-63432.707234
14073.431135,-2516.700203,-148.041188,-73545.167808
14073.434403,2516.700203,-10807.006753,-92084.678860
14073.437671,1184.329507,-9030.512492,-77375.645298
14073.440939,1480.411884,10807.006753,-49949.426470
14073.444207,1036.288319,11695.253884,-70174.347617
14073.447475,-3997.112087,3256.906145,-81665.780087
14073.450743,-3552.988522,0.000000,-94229.746254
14073.454011,7105.977043,888.247130,-78294.959896
14073.457279,6365.771101,10362.883188,-62666.611736
14073.460548,5033.400406,3849.070898,-66650.308326
14073.463816,740.205942,-4293.194464,-89633.173266
14073.467084,3256.906145,-13915.871710,-93770.088955
14073.470352,13175.665768,-4145.153275,-78907.836294
14073.473620,4293.194464,13619.789333,-58376.476948
14073.476888,-31976.896694,6809.894666,-82431.875585
14073.480156,-15692.365970,-592.164754,-103729.330429
14073.483424,-4441.235652,10955.047942,-68335.718422
14073.486699,-3997.112087,7402.059420,-60061.887043
14073.489974,-5625.565159,22354.219448,-25127.932334
14073.493249,1480.411884,4145.153275,-56384.628653
14073.496524,-8438.347739,-8586.388927,-87488.105872
14073.499799,9770.718434,12583.501014,-71859.757712
14073.503074,6957.935855,13323.706956,-60521.544342
14073.506349,1184.329507,16432.571912,-50409.083768
14073.509624,0.000000,19689.478057,-61287.639840
14073.512899,-10807.006753,14804.118840,-88713.858668
14073.516174,-1776.494261,11843.295072,-91165.364262
14073.519449,-9918.759623,14804.118840,-81972.218286
14073.522724,-25759.166782,14211.954086,-74770.920605
14073.525999,-9326.594869,-3552.988522,-94842.622652
14073.529274,13175.665768,-10807.006753,-88100.982270
14073.532548,5625.565159,1480.411884,-61134.420740
14073.535823,-12287.418637,1184.329507,-57303.943250
14073.539098,2220.617826,-3701.029710,-84576.942979
14073.542373,-740.205942,-2812.782580,-94382.965354
14073.545648,-1036.288319,2516.700203,-87641.324971
14073.548923,13027.624579,13323.706956,-60827.982541
14073.552198,3108.864956,2368.659014,-64198.802732
14073.555473,1924.535449,2812.782580,-83964.066581
14073.558748,4737.318029,-5773.606348,-92084.678860
14073.562023,-2516.700203,-4293.194464,-75383.797003
14073.565298,-1036.288319,-740.205942,-72779.072310
14073.568573,1480.411884,8290.306550,-66037.431928
14073.571848,-11103.089130,-148.041188,-87488.105872
14073.575123,-1036.288319,-11547.212695,-102350.358533
14073.578398,2812.782580,9474.636058,-63279.488135
14073.581673,-7402.059420,34937.720462,-26966.561530
14073.584948,10658.965565,27239.578666,-28805.190725
14073.588223,9474.636058,10807.006753,-69255.033019
14073.591503,-12435.459826,-1924.535449,-105414.740525
14073.594784,-3256.906145,4145.153275,-94689.403553
14073.598065,-592.164754,13915.871710,-64811.679131
14073.601345,296.082377,15988.448347,-60521.544342
14073.604626,-9030.512492,9918.759623,-80899.684589
14073.607906,-14952.160028,4737.318029,-102656.796732
14073.611187,-28868.031738,9622.677246,-96374.813648
14073.614468,-9474.636058,15396.283594,-74617.701505
14073.617748,-9030.512492,9474.636058,-79827.150892
14073.621029,-37750.503042,6069.688724,-95915.156350
14073.624309,-12583.501014,-7698.141797,-100052.072039
14073.627590,18801.230927,-5033.400406,-66650.308326
14073.630871,740.205942,13767.830521,-31103.477219
14073.634151,3849.070898,1332.370696,-58529.696047
14073.637432,7105.977043,-10066.800811,-97907.004644
14073.640713,1184.329507,-3404.947333,-93616.869856
14073.643993,14952.160028,9918.759623,-66956.746525
14073.647274,11695.253884,16284.530724,-49030.111872
14073.650554,-296.082377,10807.006753,-68488.937521
14073.653835,2368.659014,-296.082377,-93003.993457
14073.657116,-296.082377,-6365.771101,-94536.184453
14073.660396,-8290.306550,3108.864956,-79061.055394
14073.663677,6513.812290,5181.441594,-67109.965625
14073.666958,1628.453072,1184.329507,-82431.875585
14073.670238,-20429.683999,-3404.947333,-101737.482134
14073.673519,6809.894666,-9178.553681,-105874.397824
14073.676799,-2220.617826,11843.295072,-54852.437657
14073.680080,-16432.571912,24278.754898,-36312.926605
14073.683361,12731.542202,23538.548956,-30030.943522
14073.686641,1628.453072,444.123565,-74770.920605
14073.689922,-13767.830521,3849.070898,-89786.392366
14073.693202,-1036.288319,3404.947333,-81359.341888
14073.696487,-296.082377,15396.283594,-65424.555529
14073.699771,-1036.288319,18801.230927,-53626.684860
14073.703056,296.082377,10066.800811,-83351.190182
14073.706340,-12731.542202,11103.089130,-101277.824836
14073.709624,-19393.395680,20429.683999,-88713.858668
14073.712909,-4145.153275,13619.789333,-85955.914876
14073.716193,-8882.471304,18505.148550,-91165.364262
14073.719477,-33901.432144,11399.171507,-104648.645027
14073.722762,-3108.864956,-8290.306550,-109704.875314
14073.726046,8438.347739,-5329.482782,-74311.263306
14073.729330,8438.347739,13619.789333,-37998.336701
14073.732615,7846.182985,-6809.894666,-54545.999458
14073.735899,-7550.100608,-1332.370696,-78294.959896
14073.739183,-4441.235652,2812.782580,-88713.858668
14073.742468,17024.736666,6365.771101,-80286.808190
14073.745752,3404.947333,11103.089130,-59142.572446
14073.749036,6365.771101,11547.212695,-60981.201641
14073.752321,19393.395680,6069.688724,-66803.527426
14073.755605,5181.441594,-6513.812290,-84730.162079
14073.758889,-5625.565159,2664.741391,-75690.235202
14073.762174,11399.171507,-5773.606348,-77988.521696
14073.765458,6069.688724,-5181.441594,-70021.128517
14073.768742,-12435.459826,11103.089130,-68948.594820
14073.772027,-23834.631332,-5033.400406,-102656.796732
14073.775311,-29460.196492,7698.141797,-123341.375178
14073.778595,-17468.860231,10362.883188,-103729.330429
14073.781880,2960.823768,14211.954086,-54086.342159
14073.785164,-1924.535449,16728.654289,-36159.707506
14073.788448,-5625.565159,3849.070898,-56384.628653
14073.791733,-1332.370696,-3849.070898,-81359.341888
14073.795017,3404.947333,3404.947333,-75537.016103
14073.798302,6809.894666,9178.553681,-53013.808462
14073.801599,-296.082377,11843.295072,-44739.977083
14073.804886,-6365.771101,15692.365970,-54086.342159
14073.808174,3404.947333,10362.883188,-65424.555529
14073.811461,9030.512492,8734.430116,-56691.066852
14073.814748,-1036.288319,21317.931130,-44739.977083
14073.818036,6513.812290,18061.024985,-54239.561258
14073.821323,2812.782580,3552.988522,-86109.133975
14073.824610,-5921.647536,-7994.224174,-115067.543800
14073.827898,9622.677246,-11843.295072,-110624.189911
14073.831185,1332.370696,-9474.636058,-91165.364262
14073.834472,-7550.100608,10362.883188,-56691.066852
14073.837760,7254.018232,6809.894666,-70634.004916
14073.841047,-2664.741391,-3997.112087,-96834.470947
14073.844334,-4145.153275,-3404.947333,-93003.993457
14073.847622,-2368.659014,4293.194464,-70327.566716
14073.850909,3997.112087,-1628.453072,-72472.634111
14073.854196,2812.782580,3108.864956,-67263.184724
14073.857484,-1036.288319,-6957.935855,-83964.066581
14073.860771,-9622.677246,-2368.659014,-90552.487864
14073.864059,-888.247130,-1480.411884,-81972.218286
14073.867346,18505.148550,-1332.370696,-72472.634111
14073.870633,-2220.617826,14211.954086,-57150.724151
14073.873921,-3849.070898,34049.473332,-33401.763713
14073.877208,10807.006753,11103.089130,-66650.308326
14073.880495,-10362.883188,7254.018232,-95761.937250
14073.883783,-10510.924376,11251.130318,-89173.515967
14073.887070,-5329.482782,1924.535449,-82125.437386
14073.890357,5033.400406,14359.995275,-68335.718422
14073.893645,-9622.677246,15248.242405,-76149.892501
14073.896932,-6661.853478,1628.453072,-96068.375449
14073.900219,-21021.848753,10362.883188,-90246.049664
14073.903507,-14508.036463,15840.407159,-71859.757712
14073.906796,6365.771101,9918.759623,-70021.128517
14073.910085,-5329.482782,15840.407159,-70634.004916
14073.913375,-27535.661042,18653.189738,-84883.381178
14073.916664,-9770.718434,-4145.153275,-107866.246118
14073.919953,2812.782580,-10066.800811,-94995.841752
14073.923242,15840.407159,6809.894666,-51481.617466
14073.926532,-2368.659014,-1332.370696,-58836.134246
14073.929821,-888.247130,9770.718434,-52707.370262
14073.933110,-296.082377,5033.400406,-76762.768900
14073.936400,6661.853478,888.247130,-90399.268764
14073.939689,-3849.070898,9622.677246,-71093.662214
14073.942978,5773.606348,8882.471304,-63892.364533
14073.946267,10214.842000,6069.688724,-70174.347617
14073.949557,-4293.194464,148.041188,-81052.903688
14073.952846,9918.759623,-3552.988522,-87794.544071
14073.956135,-25759.166782,-2812.782580,-87028.448573
14073.959425,-444.123565,-8142.265362,-83810.847481
14073.962714,14952.160028,-4145.153275,-70327.566716
14073.966003,1628.453072,17912.983796,-58223.257848
14073.969292,-25018.960840,38342.667796,-45659.291681
14073.972582,0.000000,8438.347739,-93616.869856
14073.975871,-14952.160028,296.082377,-112309.600007
14073.979160,-18209.066173,10362.883188,-82125.437386
14073.982450,-3256.906145,8586.388927,-69255.033019
14074.012066,-3404.947333,-6217.729913,-96221.594549
14074.015357,10214.842000,-5773.606348,-89633.173266
14074.018648,15692.365970,6365.771101,-60061.887043
14074.021939,740.205942,-592.164754,-61747.297139
14074.025229,-3108.864956,5921.647536,-57610.381450
14074.028520,-444.123565,5181.441594,-87488.105872
14074.031811,1776.494261,-2664.741391,-101890.701234
14074.035102,-5921.647536,5181.441594,-83964.066581
14074.038392,-3552.988522,6809.894666,-72932.291410
14074.041683,3701.029710,3849.070898,-85649.476676
14074.044974,-2812.782580,-5921.647536,-81052.903688
14074.048265,-3997.112087,-7105.977043,-85496.257577
14074.051555,-13471.748144,-2220.617826,-88100.982270
14074.054846,-8586.388927,-7846.182985,-87334.886772
14074.058137,14359.995275,-3849.070898,-79367.493593
14074.061428,-2664.741391,23094.425390,-52094.493864
14074.064718,-10658.965565,37454.420665,-36466.145705
14074.068009,5477.523971,13027.624579,-71093.662214
14074.071300,-10658.965565,-2072.576638,-109551.656214
14074.074591,-11843.295072,10066.800811,-90858.926063
14074.077881,888.247130,8290.306550,-70021.128517
14074.081172,-13027.624579,11399.171507,-64811.679131
14074.084463,-15396.283594,18801.230927,-69867.909418
14074.087754,-3701.029710,4589.276840,-91165.364262
14074.091001,-13915.871710,9326.594869,-85802.695776
14074.094248,-5477.523971,21169.889941,-60827.982541
14074.097496,11399.171507,12731.542202,-63892.364533
14074.100743,-6513.812290,9918.759623,-81665.780087
14074.103990,-8734.430116,17468.860231,-79214.274493
14074.107238,1184.329507,888.247130,-98060.223744
14074.110485,6069.688724,-4885.359217,-101890.701234
14074.113733,-4145.153275,-3997.112087,-86262.353075
14074.116980,-1184.329507,-3404.947333,-73698.386908
14074.120227,2220.617826,9770.718434,-68029.280222
14074.123475,1628.453072,4145.153275,-74924.139704
14074.126722,-2812.782580,-444.123565,-88254.201370
14074.129969,-592.164754,2516.700203,-85496.257577
14074.133217,6069.688724,3849.070898,-68335.718422
14074.136464,12287.418637,-740.205942,-72319.415011
14074.139712,-1924.535449,-1480.411884,-71859.757712
14074.142959,12287.418637,-5921.647536,-79827.150892
14074.146206,13323.706956,-1924.535449,-72166.195912
14074.149454,-18209.066173,8882.471304,-61134.420740
14074.152701,-5181.441594,-5033.400406,-90858.926063
14074.155949,-3552.988522,4441.235652,-90399.268764
14074.159196,-20725.766376,18061.024985,-78448.178995
14074.162443,8734.430116,22354.219448,-40143.404095
14074.165691,3256.906145,9474.636058,-54852.437657
14074.168938,-15840.407159,5477.523971,-77835.302597
14074.172185,-1628.453072,-3404.947333,-88713.858668
14074.175433,5921.647536,12731.542202,-64811.679131
14074.178680,740.205942,15248.242405,-58989.353346
14074.181928,-3997.112087,17024.736666,-58529.696047
14074.185175,-14063.912898,15544.324782,-82125.437386
14074.188422,-7550.100608,4441.235652,-87794.544071
14074.191670,2368.659014,7105.977043,-75537.016103
14074.194882,-10510.924376,17172.777854,-63126.269035
14074.198094,-7402.059420,5329.482782,-65424.555529
14074.201306,16284.530724,-5921.647536,-72779.072310
14074.204517,2220.617826,-592.164754,-70174.347617
14074.207729,-740.205942,-8882.471304,-80133.589091
14074.210941,1628.453072,-3997.112087,-86722.010374
14074.214153,-7550.100608,3256.906145,-87334.886772
14074.217365,3108.864956,2960.823768,-73391.948708
14074.220577,7846.182985,11843.295072,-69714.690318
14074.223789,-11251.130318,5625.565159,-78294.959896
14074.227001,-444.123565,2812.782580,-83197.971083
14074.230213,7550.100608,-1184.329507,-78294.959896
14074.233425,4145.153275,-6365.771101,-70787.224015
14074.236637,-9326.594869,4737.318029,-65424.555529
14074.239849,2812.782580,-6217.729913,-79673.931792
14074.243061,8438.347739,-9326.594869,-87028.448573
14074.246272,148.041188,21614.013506,-54239.561258
14074.249484,-17320.819043,38194.626607,-53626.684860
14074.252696,1480.411884,19097.313304,-66497.089226
14074.255908,-7846.182985,-3404.947333,-104342.206828
14074.259120,-8142.265362,5773.606348,-91625.021561
14074.262332,-7550.100608,9918.759623,-65118.117330
14074.265544,-5033.400406,11251.130318,-65577.774629
14074.268756,-11991.336260,7254.018232,-97140.909146
14074.271968,-12287.418637,3552.988522,-101890.701234
14074.275180,-18949.272115,13175.665768,-93770.088955
14074.278392,-7698.141797,15544.324782,-65118.117330
14074.281604,-3997.112087,15692.365970,-59602.229744
14074.284816,3997.112087,13175.665768,-82278.656485
14074.288027,148.041188,12435.459826,-81818.999186
14074.291239,-148.041188,2368.659014,-71859.757712
14074.294451,11103.089130,1036.288319,-73238.729609
14074.297635,15544.324782,-11843.295072,-86262.353075
14074.300818,-10658.965565,-9474.636058,-79214.274493
14074.304001,8438.347739,13767.830521,-63432.707234
14074.307184,6069.688724,4737.318029,-68029.280222
14074.310367,1924.535449,11399.171507,-66803.527426
14074.313551,444.123565,4885.359217,-82125.437386
14074.316734,10214.842000,-148.041188,-88867.077768
14074.319917,888.247130,-296.082377,-83964.066581
14074.323100,-2368.659014,1628.453072,-80593.246390
14074.326284,-8142.265362,-1036.288319,-82585.094684
14074.329467,-444.123565,-9178.553681,-99898.852939
14074.332650,12435.459826,-8438.347739,-83810.847481
14074.335833,-19541.436869,23390.507767,-55924.971354
14074.339017,-31236.690752,30348.443622,-83504.409282
14074.342200,-10214.842000,8142.265362,-121196.307784
14074.345383,-22798.343014,-10362.883188,-121502.745983
14074.348566,-12287.418637,8438.347739,-81206.122788
14074.351750,-11399.171507,9622.677246,-56844.285952
14074.354933,-14211.954086,8882.471304,-71859.757712
14074.358116,-7994.224174,6661.853478,-92850.774358
14074.361299,-6957.935855,5625.565159,-87641.324971
14074.364483,-18357.107362,12731.542202,-79673.931792
14074.367666,-11843.295072,26203.290347,-58376.476948
14074.370849,11991.336260,12731.542202,-69255.033019
14074.374032,-3108.864956,10955.047942,-85036.600278
14074.377215,-3256.906145,22354.219448,-72166.195912
14074.380399,14952.160028,9622.677246,-54086.342159
14074.383582,9622.677246,-888.247130,-62666.611736
14074.386765,10066.800811,-14211.954086,-91931.459760
14074.389948,-3701.029710,-12583.501014,-95302.279951
14074.393132,-2664.741391,15396.283594,-61594.078039
14074.396315,6809.894666,6217.729913,-65730.993728
14074.399518,3256.906145,9918.759623,-65577.774629
14074.402721,-3404.947333,-444.123565,-91318.583362
14074.405923,5921.647536,-740.205942,-91931.459760
14074.409126,740.205942,1036.288319,-83504.409282
14074.412329,-5329.482782,148.041188,-74617.701505
14074.415532,-2220.617826,-7254.018232,-88100.982270
14074.418735,-3552.988522,-13027.624579,-100205.291138
14074.421938,-5033.400406,-3849.070898,-80286.808190
14074.425140,-1036.288319,24722.878463,-50562.302868
14074.428343,-23094.425390,34049.473332,-73545.167808
14074.431546,-11399.171507,13027.624579,-120430.212286
14074.434749,-11547.212695,-6365.771101,-121655.965082
14074.437952,-9326.594869,6217.729913,-98673.100142
14074.441155,-17024.736666,13915.871710,-61900.516238
14074.444358,-6957.935855,13767.830521,-61900.516238
14074.447560,1776.494261,8142.265362,-85955.914876
14074.450763,-11547.212695,4145.153275,-86262.353075
14074.453966,-17024.736666,15248.242405,-83197.971083
14074.457169,-10214.842000,15988.448347,-74617.701505
14074.460372,-4589.276840,14508.036463,-76915.987999
14074.463575,740.205942,9178.553681,-81052.903688
14074.466777,-3256.906145,12731.542202,-62206.954438
14074.469980,9030.512492,12287.418637,-47804.359075
14074.473183,7698.141797,3404.947333,-41215.937792
14074.476386,-2368.659014,-10066.800811,-73851.606007
14074.479589,-3256.906145,-6661.853478,-100205.291138
14074.482792,8290.306550,10955.047942,-78907.836294
14074.485994,11103.089130,7698.141797,-59142.572446
14074.489197,592.164754,8734.430116,-62973.049936
14074.492400,6957.935855,6069.688724,-76762.768900
14074.495603,3552.988522,-3849.070898,-91165.364262
14074.498806,-148.041188,-3997.112087,-78448.178995
14074.501983,18801.230927,1776.494261,-65577.774629
14074.505160,-14508.036463,2368.659014,-75996.673402
14074.508336,-20133.601622,-1332.370696,-84423.723880
14074.511513,4145.153275,-15544.324782,-111237.066310
14074.514690,-7254.018232,6069.688724,-72932.291410
14074.517867,-3997.112087,39675.038491,-21603.893044
14074.521044,4737.318029,21465.972318,-50868.741067
14074.524221,-7994.224174,-7846.182985,-107406.588820
14074.527398,-15692.365970,-8586.388927,-98213.442844
14074.530575,-3256.906145,1184.329507,-90092.830565
14074.533752,-2664.741391,25018.960840,-49336.550071
14074.536928,3552.988522,17172.777854,-70327.566716
14074.540105,-9474.636058,7846.182985,-105414.740525
14074.543282,-24722.878463,13323.706956,-102810.015832
14074.546459,1776.494261,10362.883188,-93003.993457
14074.549636,-4737.318029,14063.912898,-76609.549800
14074.552813,-29608.237680,22946.384202,-77988.521696
14074.555990,-10214.842000,2072.576638,-107100.150620
14074.559167,-2368.659014,-14508.036463,-100052.072039
14074.562344,-740.205942,1036.288319,-51634.836565
14074.565520,-7994.224174,-1480.411884,-55312.094956
14074.568697,-2368.659014,13767.830521,-57150.724151
14074.571874,-9474.636058,1924.535449,-79980.369991
14074.575051,12583.501014,-3849.070898,-83657.628382
14074.578228,16580.613101,10362.883188,-59449.010645
14074.581405,9474.636058,9030.512492,-53167.027561
14074.584582,8438.347739,6365.771101,-53013.808462
14074.587759,5921.647536,-1924.535449,-71246.881314
14074.590936,5181.441594,-5477.523971,-80286.808190
14074.594112,16876.695478,-5329.482782,-67263.184724
14074.597289,3997.112087,9326.594869,-49796.207370
14074.600466,-15396.283594,6217.729913,-75230.577904
14074.603623,-19689.478057,22798.343014,-83657.628382
14074.606779,-12435.459826,14063.912898,-114607.886501
14074.609935,-7698.141797,4293.194464,-84730.162079
14074.613091,-3256.906145,7402.059420,-45046.415282
14074.616248,-18949.272115,10658.965565,-56537.847752
14074.619404,-13767.830521,8734.430116,-70634.004916
14074.622560,-296.082377,-2664.741391,-95149.060852
14074.625717,-7698.141797,1776.494261,-80133.589091
14074.628873,-16580.613101,19985.560434,-53473.465760
14074.632029,4441.235652,16876.695478,-59602.229744
14074.635186,1480.411884,12731.542202,-66497.089226
14074.638342,-8882.471304,7105.977043,-86415.572174
14074.641498,14952.160028,-740.205942,-71246.881314
14074.644655,18801.230927,7402.059420,-31716.353617
14074.647811,10658.965565,3256.906145,-34627.516510
14074.650967,12435.459826,-14063.912898,-86109.133975
14074.654123,-1036.288319,-3108.864956,-90399.268764
14074.657280,296.082377,5625.565159,-92391.117059
14074.660436,15248.242405,3108.864956,-72166.195912
14074.663592,-1036.288319,8882.471304,-56844.285952
14074.666749,8142.265362,7846.182985,-79061.055394
14074.669905,-5329.482782,-9622.677246,-95149.060852
14074.673061,1184.329507,-6661.853478,-79520.712692
14074.676218,11991.336260,-7105.977043,-74004.825107
14074.679374,9474.636058,-1480.411884,-54392.780358
14074.682530,-12731.542202,5477.523971,-58682.915147
14074.685687,-11103.089130,-8142.265362,-93310.431656
14074.688843,-4293.194464,2516.700203,-95915.156350
14074.691999,-18505.148550,19245.354492,-89173.515967
14074.695155,10807.006753,19689.478057,-44280.319784
14074.698312,4293.194464,10807.006753,-41522.375992
14074.701468,-18209.066173,6513.812290,-72166.195912
14074.704650,-5329.482782,-9770.718434,-91471.802461
14074.707832,2072.576638,2220.617826,-90246.049664
14074.711015,-148.041188,12583.501014,-57150.724151
14074.714197,-9326.594869,22946.384202,-49642.988270
14074.717379,-7105.977043,10955.047942,-82585.094684
14074.720561,-11991.336260,5625.565159,-93923.308055
14074.723744,4441.235652,15396.283594,-77222.426198
14074.726926,5477.523971,13175.665768,-60521.544342
14074.730108,11843.295072,14359.995275,-39070.870398
14074.733290,8142.265362,-6365.771101,-68488.937521
14074.736472,-296.082377,-24278.754898,-109091.998915
14074.739655,-4441.235652,-14508.036463,-102043.920334
14074.742837,2072.576638,20577.725188,-60981.201641
14074.746019,11991.336260,6661.853478,-59449.010645
14074.749201,3849.070898,10955.047942,-64505.240932
14074.752383,3997.112087,444.123565,-95302.279951
14074.755566,-2664.741391,-6365.771101,-92237.897959
14074.758748,740.205942,-3108.864956,-64658.460031
14074.761930,16580.613101,-592.164754,-63739.145434
14074.765112,12139.377449,3552.988522,-61134.420740
14074.768295,-8734.430116,3256.906145,-78907.836294
14074.771477,-7698.141797,-9030.512492,-96681.251848
14074.774659,-11843.295072,4737.318029,-77528.864398
14074.777841,-4885.359217,30200.402434,-35393.612008
14074.781023,5033.400406,23242.466579,-41675.595091
14074.784206,1924.535449,11843.295072,-47344.701776
14074.787388,-14211.954086,1776.494261,-82431.875585
14074.790570,-4293.194464,-2664.741391,-98826.319242
14074.793752,-3108.864956,14656.077652,-67109.965625
14074.796934,3404.947333,10066.800811,-59449.010645
14074.800117,-15840.407159,13471.748144,-56537.847752
14074.803299,-20577.725188,9326.594869,-82431.875585
14074.806449,296.082377,6809.894666,-92084.678860
14074.809611,-2072.576638,10362.883188,-72012.976812
14074.812773,-1924.535449,18209.066173,-47344.701776
14074.815935,14508.036463,11547.212695,-53473.465760
14074.819098,5921.647536,-5329.482782,-56691.066852
14074.822260,148.041188,-22354.219448,-92544.336158
14074.825422,3997.112087,-8142.265362,-94536.184453
14074.828584,4293.194464,20133.601622,-62360.173537
14074.831747,3256.906145,9770.718434,-61134.420740
14074.834909,9030.512492,12731.542202,-61287.639840
14074.838071,5181.441594,4441.235652,-87641.324971
14074.841234,3849.070898,-7105.977043,-92697.555258
14074.844396,4441.235652,-2368.659014,-73391.948708
14074.847558,2516.700203,-2072.576638,-71706.538613
14074.850720,296.082377,-2072.576638,-81206.122788
14074.853883,3256.906145,2072.576638,-80133.589091
14074.857045,-33309.267390,8142.265362,-93770.088955
14074.860207,-29756.278868,14063.912898,-113535.352804
14074.863369,-11547.212695,20873.807564,-95302.279951
14074.866532,-7550.100608,12879.583391,-55158.875856
14074.869694,2516.700203,4737.318029,-59449.010645
14074.872856,-17912.983796,8290.306550,-61594.078039
14074.876018,-20281.642811,-1184.329507,-81359.341888
14074.879181,-6217.729913,4885.359217,-78294.959896
14074.882326,-1776.494261,14804.118840,-55465.314055
14074.885471,-4737.318029,20725.766376,-47191.482677
14074.888616,-12879.583391,13027.624579,-55312.094956
14074.891761,14359.995275,14063.912898,-63892.364533
14074.894906,-14063.912898,12435.459826,-68029.280222
14074.898051,592.164754,3552.988522,-64811.679131
14074.901196,28571.949361,1480.411884,-49949.426470
14074.904341,10807.006753,-888.247130,-40449.842294
14074.907486,6069.688724,-148.041188,-40603.061394
14074.910631,5033.400406,6513.812290,-71859.757712
14074.913776,-1184.329507,4441.235652,-90858.926063
14074.916921,10658.965565,-8734.430116,-79214.274493
14074.920066,9622.677246,9770.718434,-55005.656756
14074.923211,2220.617826,9178.553681,-50868.741067
14074.926356,11399.171507,-2812.782580,-64198.802732
14074.929501,3849.070898,-9622.677246,-79367.493593
14074.932646,-6957.935855,-148.041188,-79980.369991
14074.935791,-740.205942,-2220.617826,-85343.038477
14074.938936,12435.459826,-3108.864956,-86109.133975
14074.942082,-3997.112087,13471.748144,-63126.269035
14074.945227,-6365.771101,33309.267390,-54545.999458
14074.948372,2220.617826,17024.736666,-85189.819378
14074.951517,-21910.095883,-1480.411884,-111390.285409
14074.954662,-5329.482782,5477.523971,-97294.128246
14074.957807,-11991.336260,1332.370696,-87641.324971
14074.960952,-11695.253884,10658.965565,-57610.381450
14074.964097,-2812.782580,6069.688724,-81512.560987
14074.967242,-13323.706956,6957.935855,-96681.251848
14074.970387,-20133.601622,10807.006753,-87641.324971
14074.973532,-9326.594869,14952.160028,-63739.145434
14074.976677,5773.606348,17764.942608,-62973.049936
14074.979822,-148.041188,17616.901420,-70940.443115
14074.982956,-5773.606348,11399.171507,-81512.560987
14074.986089,4293.194464,-9178.553681,-106334.055122
14074.989222,4293.194464,-16284.530724,-98673.100142
14074.992356,-888.247130,-2812.782580,-65424.555529
14074.995489,-3997.112087,20281.642811,-66190.651027
14074.998623,6069.688724,3997.112087,-72472.634111
14075.001756,7105.977043,-4737.318029,-87334.886772
14075.004890,-7550.100608,4441.235652,-83351.190182
14075.008023,3849.070898,7846.182985,-58376.476948
14075.011157,10214.842000,3404.947333,-59755.448844
14075.014290,5181.441594,-5921.647536,-66497.089226
14075.017424,6661.853478,-8586.388927,-75077.358804
14075.020557,3849.070898,6957.935855,-64352.021832
14075.023691,-26203.290347,7698.141797,-68948.594820
14075.026824,-17468.860231,14359.995275,-96681.251848
14075.029958,-5921.647536,22650.301825,-104342.206828
14075.033091,-5477.523971,6661.853478,-79520.712692
14075.036225,-9178.553681,12139.377449,-44893.196183
14075.039358,-9622.677246,14211.954086,-59449.010645
14075.042492,-6513.812290,-4293.194464,-94382.965354
14075.045625,740.205942,8586.388927,-83197.971083
14075.048759,-6217.729913,9770.718434,-65577.774629
14075.051892,-2072.576638,23538.548956,-54239.561258
14075.055026,-2220.617826,13027.624579,-72472.634111
14075.058159,-6217.729913,11251.130318,-95149.060852
14075.061293,-19837.519246,8438.347739,-99285.976541
14075.064426,-11843.295072,8438.347739,-102503.577632
14075.067560,8142.265362,-2220.617826,-93770.088955
14075.070693,-11547.212695,-8586.388927,-72932.291410
14075.073826,-592.164754,-7846.182985,-69255.033019
14075.076960,-3552.988522,2368.659014,-78294.959896
14075.080093,-9918.759623,6365.771101,-78754.617194
14075.083259,-7550.100608,-6513.812290,-86109.133975
14075.086425,5477.523971,12139.377449,-72166.195912
14075.089591,-8734.430116,6513.812290,-67722.842023
14075.092757,9030.512492,-4737.318029,-76303.111601
14075.095923,11251.130318,-6217.729913,-79061.055394
14075.099089,740.205942,2516.700203,-65577.774629
14075.102255,-5625.565159,10066.800811,-61287.639840
14075.105420,-296.082377,740.205942,-74464.482406
14075.108586,-4293.194464,5033.400406,-74004.825107
14075.111752,-888.247130,27387.619854,-40449.842294
14075.114918,12435.459826,25463.084405,-35853.269306
14075.118084,2516.700203,17912.983796,-38917.651298
14075.121250,888.247130,4737.318029,-76762.768900
14075.124416,-11991.336260,-8142.265362,-100971.386636
14075.127582,-5625.565159,13323.706956,-70021.128517
14075.130748,740.205942,16432.571912,-54852.437657
14075.133913,-16432.571912,17468.860231,-67263.184724
14075.137079,-9622.677246,6809.894666,-72625.853210
14075.140245,-1776.494261,11399.171507,-81512.560987
14075.143411,-22502.260637,11991.336260,-77682.083497
14075.146577,-6809.894666,-2516.700203,-76303.111601
14075.149743,26351.331535,-444.123565,-64658.460031
14075.152909,4589.276840,-3404.947333,-48876.892772
14075.156075,-3997.112087,-9770.718434,-52247.712964
14075.159240,5921.647536,8882.471304,-65577.774629
14075.162406,148.041188,3997.112087,-87334.886772
14075.165572,1036.288319,-7402.059420,-78448.178995
14075.168738,16580.613101,11547.212695,-57610.381450
14075.171904,1776.494261,7846.182985,-65271.336430
14075.175070,3552.988522,-6809.894666,-69867.909418
14075.178236,15100.201217,-8586.388927,-73391.948708
14075.181402,6661.853478,2072.576638,-66037.431928
14075.184554,-4441.235652,3849.070898,-64198.802732
14075.187707,5773.606348,-5477.523971,-87794.544071
14075.190859,-2072.576638,5329.482782,-89326.735067
14075.194012,-3404.947333,26499.372724,-65577.774629
14075.197164,9178.553681,29460.196492,-38457.994000
14075.200317,-9474.636058,10955.047942,-69255.033019
14075.203469,-9770.718434,-2072.576638,-112616.038206
14075.206622,-6513.812290,-5329.482782,-105261.521425
14075.209774,-1184.329507,11103.089130,-76303.111601
14075.212927,-1924.535449,15840.407159,-58682.915147
14075.216079,-5625.565159,20577.725188,-72625.853210
14075.219232,-19097.313304,2368.659014,-100971.386636
14075.222384,-6513.812290,10362.883188,-93923.308055
14075.225537,-10955.047942,15396.283594,-86875.229473
14075.228689,-18801.230927,1184.329507,-86262.353075
14075.231842,5625.565159,-1776.494261,-83351.190182
14075.234995,4737.318029,-9326.594869,-68948.594820
14075.238147,-3997.112087,-14952.160028,-63432.707234
14075.241300,3701.029710,8142.265362,-70787.224015
14075.244452,-2368.659014,7698.141797,-81359.341888
14075.247605,2664.741391,-3701.029710,-77069.207099
14075.250757,17468.860231,11547.212695,-62666.611736
14075.253910,5477.523971,8290.306550,-68182.499322
14075.257062,8290.306550,3404.947333,-79367.493593
14075.260215,6957.935855,-7402.059420,-80899.684589
14075.263367,3404.947333,-3108.864956,-78907.836294
14075.266520,-7402.059420,4737.318029,-75690.235202
14075.269672,-14656.077652,7402.059420,-87947.763170
14075.272825,-17468.860231,7994.224174,-92544.336158
14075.275977,-11695.253884,23242.466579,-64505.240932
14075.279130,8734.430116,25167.002028,-42748.128788
14075.282282,-1184.329507,11991.336260,-47804.359075
14075.285465,-21317.931130,4145.153275,-76762.768900
14075.288649,-12583.501014,-5477.523971,-99898.852939
14075.291832,-5625.565159,8438.347739,-76456.330700
14075.295015,-12731.542202,15692.365970,-72472.634111
14075.298198,-2516.700203,15248.242405,-64964.898230
14075.301381,-10362.883188,8438.347739,-75077.358804
14075.304564,-8438.347739,8586.388927,-77835.302597
14075.307747,-12287.418637,23242.466579,-68642.156621
14075.310930,-11695.253884,16876.695478,-79214.274493
14075.314113,6069.688724,0.000000,-87488.105872
14075.317296,3404.947333,-22206.178260,-100971.386636
14075.320480,-6957.935855,-15544.324782,-78294.959896
14075.323663,-888.247130,15692.365970,-56844.285952
14075.326846,4145.153275,13027.624579,-67569.622924
14075.330029,-3849.070898,-4885.359217,-89173.515967
14075.333212,-2516.700203,7254.018232,-85496.257577
14075.336395,8882.471304,1776.494261,-80746.465489
14075.339578,0.000000,-148.041188,-69255.033019
14075.342761,3256.906145,-3849.070898,-77682.083497
14075.345944,6809.894666,-9622.677246,-88560.639569
14075.349127,-5773.606348,5625.565159,-77988.521696
14075.352311,-9326.594869,19393.395680,-63279.488135
14075.355494,-17912.983796,28719.990550,-71553.319513
14075.358677,-10510.924376,16728.654289,-104188.987728
14075.361860,-14952.160028,2516.700203,-92237.897959
14075.365043,-2072.576638,7402.059420,-58836.134246
14075.368226,-9178.553681,12731.542202,-67109.965625
14075.371409,-15100.201217,8142.265362,-68182.499322
14075.374592,-7698.141797,2072.576638,-84270.504780
14075.377775,-19541.436869,16284.530724,-81665.780087
14075.380958,-148.041188,17468.860231,-75690.235202
14075.384141,-18653.189738,11547.212695,-69101.813920
14075.387350,-11991.336260,9326.594869,-77069.207099
14075.390559,20133.601622,6513.812290,-75996.673402
14075.393768,10955.047942,14211.954086,-47651.139976
14075.396977,4737.318029,1184.329507,-58529.696047
14075.400186,13027.624579,-26055.249158,-94689.403553
14075.403395,-5921.647536,-16284.530724,-92697.555258
14075.406604,3108.864956,11843.295072,-80133.589091
14075.409813,7550.100608,14508.036463,-57303.943250
14075.413022,2368.659014,6513.812290,-73085.510509
14075.416231,-20133.601622,7105.977043,-93923.308055
14075.419440,8142.265362,-1036.288319,-99592.414740
14075.422649,4293.194464,-8734.430116,-89173.515967
14075.425858,-9178.553681,-888.247130,-74311.263306
14075.429067,-13915.871710,4145.153275,-80746.465489
14075.432276,-2368.659014,-9474.636058,-106334.055122
14075.435485,-1628.453072,6365.771101,-73391.948708
14075.438694,296.082377,45448.644839,-22063.550342
14075.441903,6365.771101,32421.020260,-27579.437928
14075.445112,-740.205942,5921.647536,-74311.263306
14075.448321,-9622.677246,-8882.471304,-115373.981999
14075.451529,-3256.906145,1776.494261,-88867.077768
14075.454738,-148.041188,19541.436869,-36466.145705
14075.457947,-7994.224174,16432.571912,-53167.027561
14075.461156,-11251.130318,16580.613101,-59755.448844
14075.464365,-2368.659014,-2516.700203,-96374.813648
14075.467574,3701.029710,8734.430116,-70940.443115
14075.470783,-20577.725188,29164.114115,-51175.179266
14075.473992,-7846.182985,7994.224174,-87028.448573
14075.477201,4885.359217,-2812.782580,-106334.055122
14075.480410,-6069.688724,-21021.848753,-116599.734796
14075.483619,-3552.988522,-7550.100608,-77375.645298
14075.486828,-444.123565,18801.230927,-57610.381450
14075.490059,-2072.576638,8734.430116,-88867.077768
14075.493289,-3849.070898,-8882.471304,-101737.482134
14075.496520,1184.329507,-740.205942,-104188.987728
14075.499751,-1776.494261,2368.659014,-81512.560987
14075.502981,8586.388927,1776.494261,-60215.106143
14075.506212,-5773.606348,-1776.494261,-74617.701505
14075.509443,-5181.441594,-11547.212695,-99132.757441
14075.512673,9030.512492,1924.535449,-98826.319242
14075.515904,3552.988522,19837.519246,-53473.465760
14075.519135,-19245.354492,41599.573940,-43054.566988
14075.522365,-2220.617826,13471.748144,-102810.015832
14075.525596,-17616.901420,-9474.636058,-119510.897688
14075.528827,-10510.924376,4737.318029,-72166.195912
14075.532057,-1628.453072,14063.912898,-65884.212828
14075.535288,-9770.718434,13915.871710,-41675.595091
14075.538519,-12583.501014,2516.700203,-76915.987999
14075.541749,-2368.659014,12435.459826,-93616.869856
14075.544980,-2220.617826,12139.377449,-78907.836294
14075.548211,-10066.800811,14508.036463,-62973.049936
14075.551441,-8290.306550,22354.219448,-59142.572446
14075.554672,1924.535449,2072.576638,-90092.830565
14075.557903,6661.853478,-4293.194464,-89020.296868
14075.561133,9178.553681,-1184.329507,-55465.314055
14075.564364,1480.411884,-9770.718434,-51788.055665
14075.593600,-3256.906145,3108.864956,-66650.308326
14075.596849,-12879.583391,28423.908173,-59755.448844
14075.600097,-28571.949361,23094.425390,-100052.072039
14075.603346,-17912.983796,10807.006753,-123801.032477
14075.606594,-12287.418637,-8734.430116,-117212.611194
14075.609843,-1924.535449,12139.377449,-52860.589362
14075.613091,-15692.365970,21762.054695,-38151.555800
14075.616340,-15692.365970,1924.535449,-80286.808190
14075.619588,-10658.965565,-7254.018232,-103116.454031
14075.622837,-15396.283594,20133.601622,-64045.583633
14075.626085,-1036.288319,19097.313304,-64198.802732
14075.629334,-5773.606348,21169.889941,-49183.330972
