#time,accel_x,accel_y,accel_z
13558.755599,-3997.112087,3256.906145,-76303.111601
13558.758887,-3552.988522,7698.141797,-73545.167808
13558.762176,-1184.329507,6661.853478,-73085.510509
13558.765464,-5477.523971,4589.276840,-73391.948708
13558.768753,-4145.153275,7846.182985,-75843.454302
13558.772041,3701.029710,5181.441594,-78448.178995
13558.775330,296.082377,5329.482782,-83197.971083
13558.778618,3997.112087,9326.594869,-82278.656485
13558.781906,6809.894666,12287.418637,-77835.302597
13558.785195,-1924.535449,9030.512492,-82585.094684
13558.788483,1184.329507,7550.100608,-70634.004916
13558.791772,-13767.830521,-2072.576638,-64045.583633
13558.795060,-2072.576638,8734.430116,-53013.808462
13558.798349,-11695.253884,1924.535449,-62973.049936
13558.801639,1036.288319,6513.812290,-60981.201641
13558.804929,-8586.388927,-1332.370696,-91165.364262
13558.808220,14656.077652,9918.759623,-92237.897959
13558.811510,-3404.947333,-8586.388927,-96528.032748
13558.814800,-8438.347739,2072.576638,-63432.707234
13558.818091,-5033.400406,14063.912898,-40909.499593
13558.821381,-9770.718434,9178.553681,-41062.718693
13558.824671,-13619.789333,5477.523971,-60368.325242
13558.827962,-1332.370696,-2664.741391,-89173.515967
13558.831252,2072.576638,-1776.494261,-94842.622652
13558.834542,-5181.441594,9622.677246,-80899.684589
13558.837833,-5329.482782,7254.018232,-78294.959896
13558.841123,-1332.370696,6957.935855,-72472.634111
13558.844413,-2220.617826,5773.606348,-75383.797003
13558.847704,-4293.194464,-1924.535449,-79673.931792
13558.850994,-11103.089130,-4145.153275,-77222.426198
13558.854285,-3108.864956,1480.411884,-66190.651027
13558.857575,-4589.276840,3701.029710,-66956.746525
13558.860865,-3849.070898,3404.947333,-72472.634111
13558.864156,-5033.400406,6661.853478,-80286.808190
13558.867446,-2368.659014,-740.205942,-86262.353075
13558.870736,-10658.965565,3108.864956,-69561.471218
13558.874027,10658.965565,5773.606348,-67569.622924
13558.877317,3108.864956,-6809.894666,-82431.875585
13558.880607,-32865.143825,-8734.430116,-79980.369991
13558.883898,-7698.141797,21762.054695,-35700.050207
13558.887188,-6809.894666,38490.708984,-38304.774900
13558.890478,39230.914926,3256.906145,-136671.436843
13558.893769,4293.194464,-34197.514520,-175282.649942
13558.897059,-8734.430116,-18801.230927,-146017.801919
13558.900349,-4737.318029,31828.855506,-7814.174080
13558.903640,-6661.853478,34937.720462,5669.106685
13558.906932,-888.247130,-1184.329507,-94842.622652
13558.910224,-9178.553681,-15100.201217,-137131.094142
13558.913516,-2220.617826,1332.370696,-99898.852939
13558.916808,5033.400406,10066.800811,-80133.589091
13558.920100,-1332.370696,14359.995275,-72779.072310
13558.923392,1628.453072,8142.265362,-83810.847481
13558.926684,-1332.370696,1332.370696,-83044.751983
13558.929976,2368.659014,11843.295072,-56384.628653
13558.933268,7105.977043,6513.812290,-66190.651027
13558.936560,888.247130,8734.430116,-61900.516238
13558.939852,-2516.700203,1480.411884,-79673.931792
13558.943144,4589.276840,3404.947333,-81359.341888
13558.946436,-4293.194464,6217.729913,-72012.976812
13558.949728,-592.164754,11251.130318,-66956.746525
13558.953020,-5181.441594,13767.830521,-55465.314055
13558.956312,10066.800811,9770.718434,-79061.055394
13558.959604,5329.482782,5625.565159,-92850.774358
13558.962896,-4145.153275,2960.823768,-77069.207099
13558.966188,-13027.624579,10955.047942,-62360.173537
13558.969480,9918.759623,15248.242405,-56691.066852
13558.972771,3997.112087,1776.494261,-72012.976812
13558.976063,-17172.777854,19245.354492,-66190.651027
13558.979355,15248.242405,18801.230927,-76609.549800
13558.982647,7994.224174,-5181.441594,-112922.476405
13558.985939,-10066.800811,-22354.219448,-106334.055122
13558.989231,-30496.484810,-16136.489536,-89326.735067
13558.992523,-32124.937883,38638.750172,23595.741338
13558.995815,13471.748144,23686.590144,-26660.123330
13558.999107,4441.235652,-22354.219448,-164097.655672
13559.002399,5625.565159,-21169.889941,-155670.605194
13559.005691,-12583.501014,13619.789333,-32635.668215
13559.008983,-1776.494261,31088.649564,-14862.252661
13559.012276,-8882.471304,5625.565159,-39683.746796
13559.015569,-14211.954086,-3108.864956,-78141.740796
13559.018862,-7105.977043,-4145.153275,-86262.353075
13559.022155,-3108.864956,5477.523971,-74158.044206
13559.025448,-8438.347739,11103.089130,-65730.993728
13559.028741,7550.100608,6661.853478,-81512.560987
13559.032034,-7105.977043,4589.276840,-91471.802461
13559.035327,1036.288319,6957.935855,-91012.145162
13559.038620,2368.659014,11103.089130,-66037.431928
13559.041913,-11399.171507,7402.059420,-60521.544342
13559.045206,-5773.606348,8142.265362,-69561.471218
13559.048499,5625.565159,-2072.576638,-84270.504780
13559.051792,-7994.224174,-4737.318029,-84730.162079
13559.055085,-16728.654289,6809.894666,-64045.583633
13559.058377,-2516.700203,9030.512492,-64198.802732
13559.061670,-2516.700203,2368.659014,-66497.089226
13559.064963,6957.935855,9918.759623,-90092.830565
13559.068256,-10066.800811,-6069.688724,-105414.740525
13559.071549,-2072.576638,11103.089130,-80286.808190
13559.074842,4145.153275,-5773.606348,-75383.797003
13559.078135,-26203.290347,-6809.894666,-58836.134246
13559.081428,-31532.773129,1628.453072,-51634.836565
13559.084721,-21614.013506,27387.619854,4596.572988
13559.088014,-1924.535449,36122.049970,-44586.757984
13559.091307,43672.150578,-16136.489536,-182637.166723
13559.094600,1332.370696,-16284.530724,-161492.930978
13559.097893,-1628.453072,-4293.194464,-125639.661672
13559.101186,-2664.741391,28275.866984,-9652.803275
13559.104479,888.247130,26647.413912,-17773.415554
13559.107772,-6809.894666,-14804.118840,-106334.055122
13559.111065,-9474.636058,2220.617826,-98366.661943
13559.114358,6809.894666,14211.954086,-78294.959896
13559.117650,888.247130,10510.924376,-66803.527426
13559.120943,-2072.576638,8438.347739,-75690.235202
13559.124236,8142.265362,1776.494261,-89020.296868
13559.127529,2072.576638,3701.029710,-78448.178995
13559.130822,-1036.288319,9030.512492,-62973.049936
13559.134115,-3552.988522,10510.924376,-50715.521968
13559.137408,-8438.347739,10955.047942,-54086.342159
13559.140701,2812.782580,11843.295072,-67722.842023
13559.143994,444.123565,3849.070898,-90092.830565
13559.147287,-3404.947333,5773.606348,-90246.049664
13559.150580,9474.636058,19097.313304,-71093.662214
13559.153873,-2664.741391,9326.594869,-70021.128517
13559.157166,3997.112087,9622.677246,-75537.016103
13559.160459,444.123565,-4441.235652,-90399.268764
13559.163752,3997.112087,10658.965565,-76762.768900
13559.167045,0.000000,3849.070898,-77222.426198
13559.170337,-23982.672521,15396.283594,-53626.684860
13559.173630,-25759.166782,10362.883188,-45352.853482
13559.176923,10807.006753,17172.777854,-53013.808462
13559.180216,20873.807564,-888.247130,-119664.116788
13559.183509,-444.123565,-35233.802839,-149848.279409
13559.186802,-43820.191766,6217.729913,-30643.819920
13559.190095,4293.194464,39823.079680,35393.612008
13559.193388,-7254.018232,27831.743419,15628.348159
13559.196681,-5773.606348,-2368.659014,-111083.847210
13559.199974,6661.853478,-24278.754898,-164863.751170
13559.203267,-3552.988522,15840.407159,-67876.061123
13559.206560,-3552.988522,14656.077652,-35240.392908
13559.209853,-9474.636058,3552.988522,-49642.988270
13559.213146,-11843.295072,2664.741391,-71706.538613
13559.216439,-4293.194464,1332.370696,-78294.959896
13559.219732,-8734.430116,3849.070898,-75690.235202
13559.223024,740.205942,9326.594869,-79827.150892
13559.226317,-592.164754,4145.153275,-89020.296868
13559.229609,-3701.029710,-740.205942,-90552.487864
13559.232902,-6365.771101,-296.082377,-85955.914876
13559.236194,-6661.853478,2960.823768,-68488.937521
13559.239487,-2664.741391,6069.688724,-59755.448844
13559.242779,-1628.453072,2072.576638,-72932.291410
13559.246072,-5477.523971,-4441.235652,-90858.926063
13559.249364,-740.205942,-2516.700203,-87488.105872
13559.252657,-17468.860231,-3997.112087,-79827.150892
13559.255949,-888.247130,16432.571912,-52554.151163
13559.259242,-11547.212695,-3849.070898,-68642.156621
13559.262534,-19689.478057,7402.059420,-71400.100414
13559.265827,1036.288319,10955.047942,-74924.139704
13559.269119,30496.484810,10214.842000,-104342.206828
13559.272412,2368.659014,-7994.224174,-126558.976270
13559.275704,-29756.278868,-7105.977043,-73391.948708
13559.278997,-18505.148550,39971.120868,36312.926605
13559.282289,-4885.359217,42043.697506,38917.651298
13559.285582,1184.329507,4293.194464,-79061.055394
13559.288875,1924.535449,-16284.530724,-169000.666859
13559.292167,2220.617826,-740.205942,-106027.616923
13559.295460,888.247130,37750.503042,-16854.100956
13559.298752,-2220.617826,13471.748144,-47038.263577
13559.302045,3256.906145,10658.965565,-62206.954438
13559.305337,-2812.782580,-3256.906145,-93003.993457
13559.308630,148.041188,3997.112087,-84730.162079
13559.311922,-5625.565159,13767.830521,-65730.993728
13559.315215,1924.535449,8438.347739,-62666.611736
13559.318507,-7846.182985,4885.359217,-80746.465489
13559.321800,1924.535449,5773.606348,-83197.971083
13559.325092,3404.947333,444.123565,-86875.229473
13559.328384,-13471.748144,8734.430116,-72932.291410
13559.331677,9918.759623,11695.253884,-69561.471218
13559.334969,7698.141797,10955.047942,-75383.797003
13559.338261,-10807.006753,9622.677246,-77528.864398
13559.341553,-2960.823768,0.000000,-76303.111601
13559.344845,1776.494261,12287.418637,-66343.870127
13559.348137,2368.659014,9474.636058,-74770.920605
13559.351429,4737.318029,13175.665768,-93003.993457
13559.354722,10510.924376,8734.430116,-90552.487864
13559.358014,4293.194464,-2812.782580,-108325.903417
13559.361306,-7254.018232,-8290.306550,-79367.493593
13559.364598,-30644.525999,11251.130318,-18845.949251
13559.367890,7105.977043,32124.937883,-19152.387450
13559.371182,17912.983796,-7550.100608,-144179.172724
13559.374474,-5033.400406,-32272.979071,-170992.515154
13559.377767,-5773.606348,-13915.871710,-138050.408740
13559.381059,-9474.636058,20725.766376,-12104.308868
13559.384351,-18801.230927,25611.125593,1532.190996
13559.387643,-3849.070898,-11843.295072,-101584.263035
13559.390935,7994.224174,-11843.295072,-124260.689776
13559.394227,-14063.912898,-2812.782580,-100358.510238
13559.397519,-6069.688724,8734.430116,-69255.033019
13559.400812,4293.194464,9178.553681,-66190.651027
13559.404104,-2664.741391,7550.100608,-76303.111601
13559.407396,-8290.306550,3108.864956,-87488.105872
13559.410688,2368.659014,8142.265362,-70174.347617
13559.413980,-9030.512492,9474.636058,-62513.392637
13559.417272,-1332.370696,7254.018232,-70480.785816
13559.420564,2220.617826,-2960.823768,-88713.858668
13559.423857,-14508.036463,-3997.112087,-79214.274493
13559.427149,-9178.553681,2516.700203,-64352.021832
13559.430441,-148.041188,4441.235652,-67876.061123
13559.433731,-4885.359217,11251.130318,-65424.555529
13559.437022,9918.759623,-1480.411884,-90705.706963
13559.440314,-10955.047942,-3108.864956,-95149.060852
13559.443605,-3701.029710,1924.535449,-75230.577904
13559.446896,-14508.036463,1184.329507,-56997.505051
13559.450188,-20133.601622,9030.512492,-42288.471490
13559.453479,-4589.276840,27239.578666,-41369.156892
13559.456770,32421.020260,13323.706956,-110930.628110
13559.460062,17912.983796,-24870.919651,-168081.352261
13559.463353,-26351.331535,-3404.947333,-72625.853210
13559.466645,-5477.523971,42487.821071,39530.527697
13559.469936,-7994.224174,29164.114115,27732.657028
13559.473227,-9030.512492,4441.235652,-68029.280222
13559.476519,12287.418637,-16728.654289,-152299.785002
13559.479810,-5477.523971,12583.501014,-93310.431656
13559.483101,-3701.029710,23390.507767,-41215.937792
13559.486393,6809.894666,11547.212695,-59755.448844
13559.489684,6957.935855,9030.512492,-70940.443115
13559.492975,4737.318029,6957.935855,-86722.010374
13559.496267,-3256.906145,2516.700203,-84730.162079
13559.499558,-6809.894666,12139.377449,-55312.094956
13559.502849,-888.247130,13767.830521,-63739.145434
13559.506141,3404.947333,2072.576638,-90552.487864
13559.509432,1924.535449,3552.988522,-87794.544071
13559.539050,3849.070898,592.164754,-95915.156350
13559.542341,-2960.823768,-14952.160028,-103882.549529
13559.545632,-29756.278868,9474.636058,-40296.623195
13559.548923,-25167.002028,31976.896694,-7967.393179
13559.552214,27387.619854,27535.661042,-43820.662486
13559.555505,9030.512492,-25463.084405,-165936.284867
13559.558796,-11547.212695,-15840.407159,-140042.257034
13559.562087,-7550.100608,16432.571912,-16394.443657
13559.565378,-16284.530724,25167.002028,4903.011187
13559.568669,-5625.565159,16284.530724,-32329.230016
13559.571960,7994.224174,-14359.995275,-123341.375178
13559.575251,-18653.189738,-6069.688724,-112922.476405
13559.578542,-6217.729913,11399.171507,-59602.229744
13559.581832,-3552.988522,9474.636058,-50102.645569
13559.585123,1924.535449,10362.883188,-75077.358804
13559.588414,1036.288319,-5625.565159,-98213.442844
13559.591705,-8142.265362,-8290.306550,-99745.633840
13559.594996,-9178.553681,9178.553681,-66803.527426
13559.598287,-3108.864956,11547.212695,-45199.634382
13559.601578,-6957.935855,4885.359217,-68335.718422
13559.604869,-9918.759623,-8438.347739,-94076.527154
13559.608160,2516.700203,-4293.194464,-87641.324971
13559.611451,1628.453072,3849.070898,-83044.751983
13559.614742,-3701.029710,8882.471304,-68488.937521
13559.618031,444.123565,4885.359217,-77222.426198
13559.621321,-6365.771101,-10214.842000,-88100.982270
13559.624610,-22798.343014,2516.700203,-65730.993728
13559.627899,-7105.977043,7254.018232,-56384.628653
13559.631189,2812.782580,24130.713709,-51634.836565
13559.634478,19541.436869,10066.800811,-116599.734796
13559.637768,2072.576638,-28423.908173,-150614.374907
13559.641057,-27831.743419,9622.677246,-30030.943522
13559.644347,592.164754,43968.232955,28651.971625
13559.647636,-3256.906145,27831.743419,1072.533697
13559.650925,-1776.494261,-4885.359217,-113382.133704
13559.654215,6957.935855,-12879.583391,-144179.172724
13559.657504,2516.700203,18801.230927,-59908.667944
13559.660794,-2072.576638,27831.743419,-27119.780629
13559.664083,3997.112087,5329.482782,-73851.606007
13559.667373,9622.677246,2960.823768,-92237.897959
13559.670662,5181.441594,1184.329507,-104188.987728
13559.673951,740.205942,7846.182985,-73545.167808
13559.677241,-3849.070898,7698.141797,-55771.752254
13559.680530,-4293.194464,13767.830521,-71246.881314
13559.683820,8586.388927,592.164754,-99285.976541
13559.687109,8882.471304,-7402.059420,-105261.521425
13559.690399,-11695.253884,8290.306550,-81206.122788
13559.693688,-3997.112087,16728.654289,-50562.302868
13559.696977,-4589.276840,8438.347739,-56384.628653
13559.700267,5329.482782,12287.418637,-87641.324971
13559.703556,11843.295072,-296.082377,-106946.931521
13559.706846,0.000000,10807.006753,-97294.128246
13559.710135,12583.501014,14804.118840,-81206.122788
13559.713425,1332.370696,-2664.741391,-77375.645298
13559.716714,-23834.631332,10510.924376,-51941.274764
13559.720003,10658.965565,22058.137072,-38764.432199
13559.723291,9178.553681,2516.700203,-99439.195640
13559.726579,16136.489536,-11695.253884,-144485.610923
13559.729867,-10214.842000,-29904.320057,-142800.200827
13559.733154,-18801.230927,16728.654289,-17007.320056
13559.736442,-11695.253884,29756.278868,6588.421283
13559.739730,-296.082377,2220.617826,-96834.470947
13559.743017,1628.453072,-23834.631332,-163025.121974
13559.746305,-6661.853478,-8586.388927,-130389.453760
13559.749593,888.247130,16580.613101,-64964.898230
13559.752881,-1184.329507,11399.171507,-44127.100685
13559.756168,-16432.571912,6365.771101,-67569.622924
13559.759456,4293.194464,-2220.617826,-93770.088955
13559.762744,888.247130,-2072.576638,-92697.555258
13559.766032,-3552.988522,2072.576638,-77835.302597
13559.769319,-6069.688724,8142.265362,-58989.353346
13559.772607,-13915.871710,5181.441594,-68029.280222
13559.775895,-10955.047942,-1332.370696,-77222.426198
13559.779182,-888.247130,-1332.370696,-81359.341888
13559.782470,444.123565,4293.194464,-77375.645298
13559.785758,-9474.636058,5181.441594,-74617.701505
13559.789046,0.000000,5921.647536,-76456.330700
13559.792333,-10955.047942,-4737.318029,-80746.465489
13559.795621,-3701.029710,13027.624579,-64045.583633
13559.798909,14952.160028,-3997.112087,-86568.791274
13559.802197,-3552.988522,-13027.624579,-93616.869856
13559.805484,-29016.072926,148.041188,-68029.280222
13559.808772,-13915.871710,23982.672521,-10725.336972
13559.812060,4145.153275,34197.514520,-43054.566988
13559.815347,32421.020260,-11843.295072,-163484.779273
13559.818635,-5625.565159,-17172.777854,-149695.060309
13559.821923,-740.205942,17320.819043,-28958.409824
13559.825211,1480.411884,35974.008781,-13942.938064
13559.828497,4293.194464,20873.807564,-31409.915418
13559.831782,-5477.523971,-9622.677246,-110011.313513
13559.835068,-11103.089130,-3108.864956,-96987.690047
13559.838354,-2368.659014,8290.306550,-60368.325242
13559.841640,-2516.700203,16284.530724,-52707.370262
13559.844926,-740.205942,14359.995275,-66956.746525
13559.848212,11251.130318,-3701.029710,-104801.864126
13559.851498,-2368.659014,296.082377,-95149.060852
13559.854783,5477.523971,11251.130318,-63432.707234
13559.858069,3404.947333,16876.695478,-67569.622924
13559.861355,-7105.977043,18061.024985,-52247.712964
13559.864641,-7105.977043,8882.471304,-68182.499322
13559.867927,-444.123565,2812.782580,-83504.409282
13559.871213,4737.318029,7846.182985,-82125.437386
13559.874499,1480.411884,11843.295072,-69408.252119
13559.877785,-12435.459826,13471.748144,-74924.139704
13559.881070,9030.512492,20577.725188,-62973.049936
13559.884356,15396.283594,592.164754,-98060.223744
13559.887642,-6069.688724,-9622.677246,-101277.824836
13559.890928,-31680.814318,6365.771101,-45965.729880
13559.894214,3849.070898,31532.773129,-10265.679673
13559.897500,15248.242405,3849.070898,-108632.341616
13559.900786,11695.253884,-19541.436869,-158581.768086
13559.904071,-2664.741391,-22058.137072,-157968.891688
13559.907357,-20429.683999,9770.718434,-37079.022103
13559.910643,-10362.883188,31236.690752,9499.584175
13559.913929,-2516.700203,-9474.636058,-88713.858668
13559.917215,-4145.153275,-13915.871710,-128704.043664
13559.920501,-8438.347739,-4145.153275,-108938.779816
13559.923787,-4885.359217,5625.565159,-70940.443115
13559.927073,-6217.729913,9178.553681,-49489.769171
13559.930358,444.123565,6661.853478,-73085.510509
13559.933604,-5773.606348,1776.494261,-88713.858668
13559.936849,-2072.576638,4293.194464,-79214.274493
13559.940094,-2220.617826,5921.647536,-69255.033019
13559.943339,-11399.171507,2664.741391,-69561.471218
13559.946584,7994.224174,2220.617826,-81512.560987
13559.949829,6661.853478,-1628.453072,-93616.869856
13559.953075,-21910.095883,-888.247130,-82585.094684
13559.956320,-7994.224174,10955.047942,-60368.325242
13559.959565,-18357.107362,-2960.823768,-55771.752254
13559.962810,-11251.130318,13471.748144,-48264.016374
13559.966055,12731.542202,-2072.576638,-94229.746254
13559.969300,-15988.448347,-11251.130318,-101737.482134
13559.972546,-27683.702231,5477.523971,-59142.572446
13559.975791,-1036.288319,36418.132346,-12717.185267
13559.979036,8734.430116,45448.644839,-11031.775171
13559.982281,25167.002028,-4441.235652,-129776.577361
13559.985526,-1036.288319,-17468.860231,-170532.857855
13559.988771,8438.347739,7254.018232,-57303.943250
13559.992016,-5477.523971,37306.379477,11797.870669
13559.995262,-1332.370696,4885.359217,-20378.140247
13559.998507,-1036.288319,-9770.718434,-101277.824836
13560.001752,-16284.530724,-5329.482782,-102197.139433
13560.004997,1184.329507,8882.471304,-66650.308326
13560.008242,3849.070898,16728.654289,-61287.639840
13560.011487,3997.112087,13619.789333,-92697.555258
13560.014733,7994.224174,3701.029710,-98979.538342
13560.017978,-1776.494261,-2516.700203,-91625.021561
13560.021223,4441.235652,15100.201217,-67876.061123
13560.024468,7105.977043,18653.189738,-58223.257848
13560.027713,-13027.624579,13027.624579,-67722.842023
13560.030958,148.041188,4441.235652,-81818.999186
13560.034204,5181.441594,11695.253884,-73545.167808
13560.037415,-148.041188,10510.924376,-72932.291410
13560.040626,-2220.617826,22502.260637,-69408.252119
13560.043838,15840.407159,7402.059420,-96681.251848
13560.047049,-9622.677246,-7402.059420,-100205.291138
13560.050261,-12879.583391,11843.295072,-63892.364533
13560.053472,1036.288319,20873.807564,-49949.426470
13560.056684,5625.565159,23982.672521,-53473.465760
13560.059895,9918.759623,-23390.507767,-135598.903146
13560.063106,-31680.814318,-23538.548956,-98673.100142
13560.066318,-11991.336260,26055.249158,10878.556072
13560.069529,-5477.523971,18209.066173,-20837.797546
13560.072741,-5625.565159,11547.212695,-55924.971354
13560.075952,-3404.947333,-21910.095883,-150920.813106
13560.079163,592.164754,-4145.153275,-105108.302326
13560.082375,-296.082377,18801.230927,-40909.499593
13560.085586,-8734.430116,13323.706956,-40296.623195
13560.088798,-7994.224174,-3701.029710,-75843.454302
13560.092009,3849.070898,-4737.318029,-86262.353075
13560.095221,888.247130,4441.235652,-87181.667672
13560.098432,-1184.329507,3849.070898,-74311.263306
13560.101643,-16728.654289,5477.523971,-60827.982541
13560.104855,-17172.777854,3256.906145,-66190.651027
13560.108066,4885.359217,-1036.288319,-82125.437386
13560.111278,-7846.182985,3701.029710,-78601.398095
13560.114489,-12139.377449,1332.370696,-78754.617194
13560.117701,148.041188,4737.318029,-81206.122788
13560.120912,-740.205942,-5181.441594,-81972.218286
13560.124123,-10955.047942,2812.782580,-70174.347617
13560.127335,5181.441594,12583.501014,-60368.325242
13560.130546,7550.100608,3108.864956,-79673.931792
13560.133758,15840.407159,-8142.265362,-105567.959624
13560.136969,-29312.155303,-17616.901420,-96987.690047
13560.140153,-24722.878463,28423.908173,3524.039291
13560.143337,7698.141797,32272.979071,-14096.157163
13560.146520,5773.606348,-2516.700203,-139276.161536
13560.149704,4885.359217,-8142.265362,-154444.852397
13560.152888,11695.253884,-4885.359217,-134373.150349
13560.156071,4145.153275,29460.196492,-39683.746796
13560.159255,4737.318029,19097.313304,-43820.662486
13560.162439,-296.082377,-4441.235652,-85189.819378
13560.165623,-18209.066173,-6365.771101,-86568.791274
13560.168806,-13915.871710,4293.194464,-69561.471218
13560.171990,-296.082377,12139.377449,-48417.235474
13560.175174,-2664.741391,7994.224174,-67569.622924
13560.178358,6365.771101,1184.329507,-109704.875314
13560.181541,11399.171507,-2960.823768,-114607.886501
13560.184725,-6957.935855,6957.935855,-66650.308326
13560.187909,-2960.823768,19393.395680,-28805.190725
13560.191093,-2812.782580,21169.889941,-34627.516510
13560.194276,-7698.141797,10214.842000,-56844.285952
13560.197460,1776.494261,9918.759623,-85496.257577
13560.200644,10510.924376,740.205942,-103882.549529
13560.203827,-6069.688724,3404.947333,-85036.600278
13560.207011,-10362.883188,11399.171507,-74004.825107
13560.210195,17172.777854,20873.807564,-57763.600549
13560.213379,7105.977043,9770.718434,-86568.791274
13560.216562,7846.182985,-26795.455100,-131308.768357
13560.219746,-45892.768404,-8142.265362,-54852.437657
13560.222930,-10214.842000,33013.185013,25127.932334
13560.226114,-7550.100608,24426.796086,13789.718964
13560.229297,-5921.647536,-4441.235652,-87947.763170
13560.232481,-6365.771101,-19541.436869,-153831.975998
13560.235665,1628.453072,7105.977043,-88254.201370
13560.238849,3404.947333,18801.230927,-38764.432199
13560.242047,-6217.729913,8586.388927,-58529.696047
13560.245246,-4885.359217,2072.576638,-74924.139704
13560.248445,-3404.947333,-6513.812290,-89020.296868
13560.251644,-17024.736666,7402.059420,-59295.791545
13560.254843,-11251.130318,3849.070898,-53779.903960
13560.258042,-6365.771101,2960.823768,-69714.690318
13560.261240,-2960.823768,-592.164754,-97140.909146
13560.264439,444.123565,-1184.329507,-103269.673130
13560.267638,-8882.471304,-6069.688724,-94842.622652
13560.270837,-5477.523971,7994.224174,-65730.993728
13560.274036,-7994.224174,148.041188,-61134.420740
13560.277235,-1036.288319,11695.253884,-72012.976812
13560.280434,4293.194464,-11399.171507,-104342.206828
13560.283632,-15692.365970,-17764.942608,-101431.043935
13560.286831,-34493.596897,6809.894666,-51481.617466
13560.290030,-3108.864956,41155.450375,-5669.106685
13560.293229,31976.896694,19245.354492,-87947.763170
13560.296428,14656.077652,-24130.713709,-187999.835209
13560.299627,-3701.029710,-20725.766376,-181411.413926
13560.302826,11547.212695,3701.029710,-71093.662214
13560.306024,-7698.141797,37750.503042,13636.499864
13560.309223,-5773.606348,6365.771101,-57150.724151
13560.312422,-7402.059420,-8586.388927,-112309.600007
13560.315621,-11695.253884,7550.100608,-77069.207099
13560.318820,4885.359217,14359.995275,-56078.190454
13560.322019,888.247130,15692.365970,-62053.735338
13560.325217,1480.411884,13175.665768,-78294.959896
13560.328416,12731.542202,4145.153275,-102503.577632
13560.331615,4145.153275,1924.535449,-85189.819378
13560.334814,0.000000,13027.624579,-55158.875856
13560.338013,-9770.718434,9918.759623,-51634.836565
13560.341212,148.041188,14952.160028,-58376.476948
13560.344424,-2516.700203,11399.171507,-72012.976812
13560.347636,-2664.741391,5329.482782,-79367.493593
13560.350848,-15396.283594,17172.777854,-73238.729609
13560.354060,13767.830521,14508.036463,-80286.808190
13560.357272,9030.512492,-12287.418637,-102963.234931
13560.360484,-17616.901420,-148.041188,-98060.223744
13560.363696,-6957.935855,15840.407159,-62819.830836
13560.366908,23242.466579,22354.219448,-49183.330972
13560.370120,9622.677246,-6809.894666,-114301.448302
13560.373332,-23686.590144,-29904.320057,-119817.335887
13560.376545,-7402.059420,-10807.006753,-96528.032748
13560.379757,-23686.590144,18505.148550,6128.763984
13560.382969,-4145.153275,21021.848753,-22369.988542
13560.386181,-8290.306550,-19393.395680,-127171.852668
13560.389393,-10955.047942,-2812.782580,-117672.268493
13560.392605,4293.194464,13915.871710,-65118.117330
13560.395817,6957.935855,10658.965565,-62360.173537
13560.399029,-7550.100608,13767.830521,-61900.516238
13560.402241,3256.906145,2664.741391,-83657.628382
13560.405453,-10955.047942,-1924.535449,-85343.038477
13560.408665,-6217.729913,9030.512492,-61287.639840
13560.411877,-1332.370696,-1332.370696,-59142.572446
13560.415089,-14211.954086,2368.659014,-72779.072310
13560.418301,-15396.283594,-740.205942,-76762.768900
13560.421533,740.205942,3108.864956,-89020.296868
13560.424756,-8438.347739,-444.123565,-85955.914876
13560.427979,14952.160028,10362.883188,-81359.341888
13560.431202,-6809.894666,-7105.977043,-95761.937250
13560.434424,-18357.107362,-2516.700203,-85955.914876
13560.437647,-9770.718434,19097.313304,-53626.684860
13560.440870,29164.114115,26647.413912,-63892.364533
13560.444093,14804.118840,-12287.418637,-126712.195369
13560.447316,-22502.260637,-13323.706956,-107866.246118
13560.450539,-9918.759623,26795.455100,-4443.353888
13560.453761,-11991.336260,28127.825796,9346.365076
13560.456984,-3997.112087,20725.766376,-27426.218828
13560.460207,2664.741391,-17764.942608,-134832.807648
13560.463430,-4589.276840,7698.141797,-108019.465218
13560.466653,3552.988522,20577.725188,-51175.179266
13560.469875,6513.812290,16580.613101,-50562.302868
13560.473098,-1776.494261,15544.324782,-61134.420740
13560.476321,11251.130318,3552.988522,-88867.077768
13560.479544,-888.247130,-6217.729913,-87334.886772
13560.482767,-9918.759623,7105.977043,-53167.027561
13560.485990,148.041188,15100.201217,-39530.527697
13560.489212,-13323.706956,5033.400406,-68795.375720
13560.492435,-3552.988522,12435.459826,-78601.398095
13560.495658,2220.617826,3849.070898,-94842.622652
13560.498881,2664.741391,12287.418637,-79827.150892
13560.502104,-3256.906145,7254.018232,-67569.622924
13560.505327,3849.070898,14359.995275,-58529.696047
13560.508549,6069.688724,-148.041188,-80899.684589
13560.511772,-444.123565,-1332.370696,-88867.077768
13560.514995,-28868.031738,-11547.212695,-76609.549800
13560.518218,-16580.613101,22502.260637,-22829.645840
13560.521441,16876.695478,30348.443622,-40449.842294
13560.524673,9474.636058,-25018.960840,-168234.571361
13560.527906,-3404.947333,-18209.066173,-146477.459218
13560.531139,1036.288319,-6365.771101,-116752.953895
13560.534371,-6069.688724,28423.908173,-3370.820191
13560.537604,-9326.594869,7254.018232,-36006.488406
13560.540836,-9770.718434,-15692.365970,-104648.645027
13560.544069,-15544.324782,-8882.471304,-99439.195640
13560.547302,-2516.700203,13915.871710,-60521.544342
13560.550534,-1036.288319,14063.912898,-54239.561258
13560.553767,592.164754,11251.130318,-74004.825107
13560.557000,-1924.535449,3256.906145,-103576.111330
13560.560232,4441.235652,-592.164754,-94842.622652
13560.563465,-2220.617826,3552.988522,-59602.229744
13560.566697,-18357.107362,6513.812290,-45812.510780
13560.569930,-2072.576638,12879.583391,-49949.426470
13560.573163,-2664.741391,-2220.617826,-84423.723880
13560.576395,7846.182985,-1776.494261,-98826.319242
13560.579628,-17616.901420,-2516.700203,-90092.830565
13560.582861,-9030.512492,21465.972318,-55158.875856
13560.586093,24722.878463,11843.295072,-56231.409553
13560.589326,39230.914926,11103.089130,-102810.015832
13560.592559,-9770.718434,-25907.207970,-146630.678317
13560.595791,-20725.766376,5921.647536,-57150.724151
13560.599024,-3108.864956,40859.367998,27426.218828
13560.602256,-8882.471304,10658.965565,-64352.021832
13560.605489,17616.901420,4145.153275,-91471.802461
13560.608722,7550.100608,-16432.571912,-150767.594006
13560.611954,2664.741391,14359.995275,-84576.942979
13560.615187,11695.253884,28127.825796,-45965.729880
13560.618420,9770.718434,14508.036463,-65424.555529
13560.621652,-3404.947333,-888.247130,-93003.993457
13560.624885,-1332.370696,1776.494261,-89786.392366
13560.628126,148.041188,2072.576638,-74464.482406
13560.631367,-4589.276840,10510.924376,-60674.763442
13560.634607,0.000000,9918.759623,-71246.881314
13560.637848,3404.947333,7402.059420,-87794.544071
13560.641089,296.082377,6069.688724,-86262.353075
13560.644330,-2664.741391,9030.512492,-81665.780087
13560.647571,5033.400406,21762.054695,-71093.662214
13560.650812,10214.842000,7550.100608,-83810.847481
13560.654052,-10807.006753,-2664.741391,-85036.600278
13560.657293,5477.523971,10214.842000,-67722.842023
13560.660534,11251.130318,11843.295072,-68488.937521
13560.663775,13619.789333,1184.329507,-90705.706963
13560.667016,-24278.754898,-20873.807564,-97140.909146
13560.670257,-35381.844028,11843.295072,-24974.713235
13560.673498,2812.782580,23686.590144,-12870.404366
13560.676738,-1628.453072,-3701.029710,-116446.515696
13560.679979,1628.453072,-21910.095883,-159501.082684
13560.683220,9326.594869,-7254.018232,-132534.521154
13560.686461,-9030.512492,15248.242405,-51021.960167
13560.689702,1332.370696,15840.407159,-44433.538884
13560.692943,0.000000,-2960.823768,-84117.285680
13560.696184,-18801.230927,-5625.565159,-88407.420469
13560.699424,-2072.576638,4885.359217,-72319.415011
13560.702665,-6661.853478,5477.523971,-67876.061123
13560.705906,-9474.636058,6957.935855,-68335.718422
13560.709147,-6513.812290,296.082377,-84117.285680
13560.712388,-8142.265362,-3404.947333,-85189.819378
13560.715629,-4145.153275,-296.082377,-75996.673402
13560.718870,-2812.782580,5181.441594,-66343.870127
13560.722110,2368.659014,1628.453072,-78294.959896
13560.725351,-17616.901420,-740.205942,-79520.712692
13560.728592,-148.041188,13323.706956,-63126.269035
13560.731840,13471.748144,6069.688724,-79214.274493
13560.735087,-11103.089130,-8586.388927,-98366.661943
13560.738335,-21169.889941,-18505.148550,-110470.970812
13560.741583,-26203.290347,18949.272115,-11644.651570
13560.744830,2072.576638,37602.461854,-1072.533697
13560.748078,9474.636058,1924.535449,-113535.352804
13560.751326,12139.377449,-11695.253884,-167162.037664
13560.754573,7698.141797,12435.459826,-88560.639569
13560.757821,13027.624579,20873.807564,-65730.993728
13560.761069,7994.224174,21317.931130,-44280.319784
13560.764316,4293.194464,8142.265362,-71246.881314
13560.767564,-5921.647536,-6217.729913,-84730.162079
13560.770812,-9918.759623,5773.606348,-79214.274493
13560.774059,2220.617826,2812.782580,-71553.319513
13560.777307,888.247130,148.041188,-76456.330700
13560.780555,-4145.153275,2960.823768,-75537.016103
13560.783802,1924.535449,11695.253884,-67263.184724
13560.787050,-2664.741391,10807.006753,-71553.319513
13560.790298,2368.659014,14359.995275,-75996.673402
13560.793545,6513.812290,14359.995275,-79061.055394
13560.796793,15988.448347,14359.995275,-70634.004916
13560.800041,-2220.617826,-3701.029710,-91012.145162
13560.803288,-17764.942608,3997.112087,-70327.566716
13560.806536,296.082377,19393.395680,-43054.566988
13560.809784,9474.636058,14211.954086,-70787.224015
13560.813031,10955.047942,-21614.013506,-140961.571632
13560.816279,-9622.677246,-34197.514520,-151227.251305
13560.819527,-21169.889941,3701.029710,-52860.589362
13560.822774,-10510.924376,20577.725188,10572.117872
13560.826022,-11103.089130,3849.070898,-57763.600549
13560.829270,-3108.864956,-17912.983796,-134066.712150
13560.832517,-5033.400406,-1480.411884,-97600.566445
13560.835770,-9770.718434,8290.306550,-74158.044206
13560.839023,-148.041188,13027.624579,-51328.398366
13560.842276,6069.688724,6661.853478,-74770.920605
13560.845529,-1036.288319,-2220.617826,-86875.229473
13560.848781,-6217.729913,2664.741391,-75230.577904
13560.852034,-9918.759623,6957.935855,-62053.735338
13560.855287,-16432.571912,1628.453072,-61134.420740
13560.858540,-1924.535449,2368.659014,-67263.184724
13560.861793,-1184.329507,-4441.235652,-88713.858668
13560.865045,-21762.054695,-5773.606348,-86415.572174
13560.868298,-1036.288319,7550.100608,-67416.403824
13560.871551,9622.677246,4737.318029,-65730.993728
13560.874804,1332.370696,-4145.153275,-82431.875585
13560.878057,-21317.931130,-9770.718434,-86262.353075
13560.881310,-21465.972318,14211.954086,-28345.533426
13560.884562,-740.205942,42339.779882,-17620.196454
13560.887815,38046.585419,1184.329507,-129163.700963
13560.891068,2368.659014,-14063.912898,-158122.110787
13560.894321,8586.388927,-12287.418637,-147396.773815
13560.897574,10214.842000,25611.125593,-45659.291681
13560.900827,-9326.594869,21614.013506,-21603.893044
13560.904079,-6217.729913,2960.823768,-65884.212828
13560.907332,-3404.947333,-7550.100608,-92237.897959
13560.910585,-5773.606348,5921.647536,-80440.027290
13560.913838,-8290.306550,7698.141797,-79980.369991
13560.917091,4589.276840,3404.947333,-81512.560987
13560.920344,-1776.494261,2812.782580,-77375.645298
13560.923596,2368.659014,11251.130318,-66956.746525
13560.926849,6809.894666,18653.189738,-61440.858940
13560.930102,-10955.047942,10807.006753,-71246.881314
13560.933355,10807.006753,14952.160028,-74617.701505
13560.936608,2368.659014,-2960.823768,-82891.532884
13560.939865,-592.164754,16284.530724,-60215.106143
13560.943122,2812.782580,3404.947333,-72319.415011
13560.946380,-21317.931130,2960.823768,-69408.252119
13560.949637,-36270.091158,-2516.700203,-53626.684860
13560.952895,3404.947333,26647.413912,-37232.241203
13560.956152,15544.324782,17616.901420,-90092.830565
13560.959409,740.205942,-25315.043216,-162565.464676
13560.962667,-2516.700203,-7698.141797,-100511.729338
13560.965924,-15544.324782,13619.789333,-1838.629195
13560.969182,-17320.819043,29016.072926,-306.438199
13560.972439,-10214.842000,0.000000,-54545.999458
13560.975696,-13175.665768,-13323.706956,-102197.139433
13560.978954,-14359.995275,2664.741391,-81512.560987
13560.982211,444.123565,8882.471304,-64352.021832
13560.985469,-8142.265362,10955.047942,-66497.089226
13560.988726,888.247130,10362.883188,-81359.341888
13560.991983,296.082377,5033.400406,-79367.493593
13560.995241,-4737.318029,4737.318029,-88100.982270
13560.998498,2664.741391,-2812.782580,-82891.532884
13561.001756,3256.906145,1036.288319,-73851.606007
13561.005013,-20429.683999,2664.741391,-66803.527426
13561.008270,-7402.059420,10362.883188,-69255.033019
13561.011528,296.082377,-8586.388927,-77835.302597
13561.014785,-21910.095883,148.041188,-70021.128517
13561.018043,-6661.853478,16580.613101,-65118.117330
13561.021300,23390.507767,23686.590144,-91165.364262
13561.024557,24130.713709,-9770.718434,-139582.599736
13561.027815,13471.748144,-19541.436869,-166855.599464
13561.031072,-3552.988522,1924.535449,-78754.617194
13561.034330,-18357.107362,29608.237680,20991.016645
13561.037587,-7698.141797,18357.107362,-17313.758255
13561.040844,-2368.659014,-16876.695478,-125333.223473
13561.044105,444.123565,10362.883188,-110624.189911
13561.047366,5477.523971,8586.388927,-95302.279951
13561.050627,740.205942,9622.677246,-69867.909418
13561.053888,-444.123565,16432.571912,-67569.622924
13561.057149,11843.295072,5921.647536,-80746.465489
13561.060410,-3256.906145,4589.276840,-81359.341888
13561.063671,3256.906145,12287.418637,-73391.948708
13561.066932,7254.018232,16284.530724,-69867.909418
13561.070193,-7254.018232,5773.606348,-67263.184724
13561.073454,-888.247130,9474.636058,-76149.892501
13561.076716,0.000000,-1924.535449,-84423.723880
13561.079977,-5181.441594,13619.789333,-62819.830836
13561.083238,2812.782580,7254.018232,-70174.347617
13561.086499,-2664.741391,-4293.194464,-82585.094684
13561.089760,-30052.361245,-8438.347739,-78754.617194
13561.093021,-4145.153275,25167.002028,-37079.022103
13561.096282,14656.077652,20281.642811,-64045.583633
13561.099543,8290.306550,-17468.860231,-150001.498508
13561.102804,2812.782580,-14211.954086,-116599.734796
13561.106065,5181.441594,-9770.718434,-102810.015832
13561.109326,-13767.830521,24426.796086,-10725.336972
13561.112587,-10066.800811,6809.894666,-37385.460302
13561.115848,-9770.718434,-9622.677246,-91012.145162
13561.119109,-16728.654289,-3108.864956,-95149.060852
13561.122370,1036.288319,4885.359217,-78448.178995
13561.125631,-10955.047942,1036.288319,-75537.016103
13561.128892,-11547.212695,9918.759623,-64964.898230
13561.132153,-1332.370696,6365.771101,-65577.774629
13561.135414,-9326.594869,-6513.812290,-80899.684589
13561.138675,1036.288319,4293.194464,-81206.122788
13561.141936,4885.359217,4885.359217,-75230.577904
13561.145197,-13027.624579,1332.370696,-76609.549800
13561.148460,-19393.395680,-148.041188,-75383.797003
13561.151724,4145.153275,9918.759623,-72012.976812
13561.154987,7402.059420,-6661.853478,-84270.504780
13561.158251,-26647.413912,-3256.906145,-77069.207099
13561.161514,-27831.743419,-8142.265362,-77835.302597
13561.164778,-15840.407159,24278.754898,-10572.117872
13561.168041,6069.688724,25611.125593,-40909.499593
13561.171304,14211.954086,-5181.441594,-145558.144620
13561.174568,8734.430116,-12731.542202,-150920.813106
13561.177831,6217.729913,25907.207970,-48110.797274
13561.181095,5625.565159,23094.425390,-44280.319784
13561.184358,-1332.370696,15100.201217,-40909.499593
13561.187622,1332.370696,2664.741391,-70480.785816
13561.190885,296.082377,-4293.194464,-80133.589091
13561.194148,-6513.812290,4885.359217,-79367.493593
13561.197412,2220.617826,10362.883188,-72319.415011
13561.200675,6217.729913,5625.565159,-74158.044206
13561.203939,-4441.235652,10807.006753,-76915.987999
13561.207202,1924.535449,11251.130318,-81206.122788
13561.210466,4589.276840,7846.182985,-82585.094684
13561.213729,-4885.359217,8882.471304,-68488.937521
13561.216992,8586.388927,14063.912898,-57303.943250
13561.220256,-1036.288319,-740.205942,-76149.892501
13561.223519,-18505.148550,-2960.823768,-70634.004916
13561.226785,-27979.784608,6069.688724,-52247.712964
13561.230050,18505.148550,26055.249158,-43820.662486
13561.233316,13471.748144,6365.771101,-111083.847210
13561.236581,2960.823768,-27979.784608,-161646.150078
13561.239846,-15692.365970,-4737.318029,-68182.499322
13561.243112,-6217.729913,6069.688724,-43667.443386
13561.246377,-8882.471304,20873.807564,12410.747068
13561.249643,-18801.230927,-3256.906145,-71859.757712
13561.252908,-7698.141797,-5921.647536,-113841.791003
13561.256174,-4441.235652,1776.494261,-91931.459760
13561.259439,-8438.347739,1924.535449,-79980.369991
13561.262705,-7254.018232,18949.272115,-66037.431928
13561.265970,5329.482782,8290.306550,-74464.482406
13561.269236,-4441.235652,2368.659014,-84423.723880
13561.272501,-6365.771101,-4293.194464,-82585.094684
13561.275766,4293.194464,1628.453072,-67876.061123
13561.279032,-13471.748144,3997.112087,-65118.117330
13561.282297,-6365.771101,10955.047942,-65271.336430
13561.285563,-13027.624579,-6069.688724,-88867.077768
13561.288828,-14063.912898,3552.988522,-74004.825107
13561.292094,12879.583391,13915.871710,-82738.313784
13561.295359,28423.908173,-444.123565,-113228.914604
13561.298625,10362.883188,-15248.242405,-144179.172724
13561.301890,-14063.912898,-7846.182985,-95915.156350
13561.305155,-9178.553681,30644.525999,6741.640382
13561.308421,-11547.212695,25315.043216,-17007.320056
13561.311686,7994.224174,-2516.700203,-121655.965082
13561.314952,444.123565,-4885.359217,-141268.009831
13561.318217,4293.194464,5921.647536,-107253.369720
13561.321483,14508.036463,20133.601622,-64045.583633
13561.324748,1184.329507,15248.242405,-58682.915147
13561.328014,-2664.741391,4737.318029,-71553.319513
13561.331281,-296.082377,296.082377,-78294.959896
13561.334548,-2072.576638,6217.729913,-69408.252119
13561.337815,148.041188,16876.695478,-70021.128517
13561.341082,444.123565,8142.265362,-78294.959896
13561.344349,-3108.864956,3849.070898,-82278.656485
13561.347616,-6809.894666,13027.624579,-75383.797003
13561.350883,9474.636058,15100.201217,-67569.622924
13561.354150,-9030.512492,740.205942,-78754.617194
13561.357417,-13767.830521,14804.118840,-67263.184724
13561.360684,14656.077652,11251.130318,-79061.055394
13561.363952,11991.336260,6661.853478,-101124.605736
13561.367219,592.164754,-19985.560434,-111083.847210
13561.370486,-40563.285622,1776.494261,-41062.718693
13561.373753,-19837.519246,13915.871710,-8120.612279
13561.377020,-16876.695478,19393.395680,6128.763984
13561.380287,-12583.501014,-9474.636058,-92084.678860
13561.383554,296.082377,-14656.077652,-141268.009831
13561.386821,3552.988522,9918.759623,-92544.336158
13561.390088,2516.700203,16728.654289,-58223.257848
13561.393355,-1924.535449,9770.718434,-68182.499322
13561.396622,-2220.617826,11251.130318,-65884.212828
13561.399889,-5329.482782,740.205942,-75996.673402
13561.403156,-9030.512492,1480.411884,-74617.701505
13561.406424,-5033.400406,-2220.617826,-77528.864398
13561.409691,-8290.306550,-740.205942,-79214.274493
13561.412958,-15692.365970,0.000000,-74924.139704
13561.416225,-2516.700203,5921.647536,-79673.931792
13561.419492,-12731.542202,-3108.864956,-89020.296868
13561.422759,-6661.853478,9770.718434,-72932.291410
13561.426026,14508.036463,14063.912898,-80746.465489
13561.429293,28719.990550,6513.812290,-107866.246118
13561.432560,22798.343014,-14359.995275,-139582.599736
13561.435836,-13175.665768,-10510.924376,-101890.701234
13561.439104,-10214.842000,27831.743419,-766.095498
13561.442373,-9622.677246,27831.743419,-13483.280765
13561.445641,5625.565159,2960.823768,-116293.296596
13561.448909,2220.617826,-3849.070898,-149541.841210
13561.452177,7698.141797,4885.359217,-112003.161808
13561.455445,10066.800811,12435.459826,-72012.976812
13561.458714,-4293.194464,18209.066173,-60215.106143
13561.461982,8438.347739,5921.647536,-72012.976812
13561.465250,740.205942,-1480.411884,-78141.740796
13561.468518,-1628.453072,6365.771101,-74770.920605
13561.471786,-5625.565159,11695.253884,-72779.072310
13561.475055,-3997.112087,13323.706956,-65271.336430
13561.478323,6957.935855,13323.706956,-70327.566716
13561.481591,-888.247130,1332.370696,-90399.268764
13561.484859,4441.235652,12583.501014,-80593.246390
13561.488127,7698.141797,4885.359217,-91471.802461
13561.491395,1776.494261,-1924.535449,-78907.836294
13561.494664,-29164.114115,-740.205942,-52094.493864
13561.497932,3849.070898,23538.548956,-33554.982812
13561.501200,11103.089130,10066.800811,-85955.914876
13561.504468,-592.164754,-25167.002028,-153372.318700
13561.507736,-2072.576638,-3997.112087,-90705.706963
13561.511005,-3256.906145,-6217.729913,-68795.375720
13561.514273,-18653.189738,17616.901420,-766.095498
13561.517541,-13767.830521,3404.947333,-54086.342159
13561.520809,-8438.347739,-4737.318029,-95455.499051
13561.524077,-17764.942608,2072.576638,-93770.088955
13561.527346,-8734.430116,-1776.494261,-85955.914876
13561.530614,-6069.688724,7254.018232,-64811.679131
13561.533882,-5625.565159,8882.471304,-61134.420740
13561.537150,-1628.453072,3552.988522,-73698.386908
13561.540419,296.082377,-740.205942,-90246.049664
13561.543688,-10658.965565,-1628.453072,-80746.465489
13561.546957,8142.265362,2664.741391,-81052.903688
13561.550226,-12731.542202,1332.370696,-73238.729609
13561.553495,-4293.194464,14211.954086,-68488.937521
13561.556763,22058.137072,-2220.617826,-97447.347346
13561.560032,-16136.489536,-9622.677246,-96068.375449
13561.563301,-27239.578666,0.000000,-53626.684860
13561.566570,-15840.407159,16580.613101,-15934.786358
13561.569839,-6069.688724,32717.102636,-3217.601092
13561.573108,5181.441594,4589.276840,-108172.684318
13561.576377,21614.013506,-16284.530724,-169613.543257
13561.579646,4441.235652,17320.819043,-85802.695776
13561.582915,3701.029710,30644.525999,-22829.645840
13561.586183,9770.718434,17764.942608,-43973.881585
13561.589452,6217.729913,5181.441594,-61440.858940
13561.592721,-1628.453072,148.041188,-84117.285680
13561.595990,-2220.617826,2812.782580,-92391.117059
13561.599259,-3256.906145,13027.624579,-76456.330700
13561.602528,-8290.306550,4885.359217,-76915.987999
13561.605797,740.205942,7254.018232,-75077.358804
13561.609066,7550.100608,15988.448347,-72779.072310
13561.612334,7105.977043,4737.318029,-93923.308055
13561.615603,2368.659014,14063.912898,-83504.409282
13561.618872,6513.812290,6957.935855,-78448.178995
13561.622141,8290.306550,-7550.100608,-83044.751983
13561.625410,-26351.331535,-9622.677246,-64811.679131
13561.628679,-31236.690752,20873.807564,-18692.730151
13561.631948,10658.965565,25167.002028,-40143.404095
13561.635217,7254.018232,-16432.571912,-151840.127704
13561.638486,6365.771101,-15396.283594,-149848.279409
13561.641754,-2960.823768,296.082377,-43514.224286
13561.645024,-6957.935855,16728.654289,-28805.190725
13561.648293,-14656.077652,13323.706956,-27426.218828
13561.651562,-6513.812290,-1776.494261,-70940.443115
13561.654831,-22502.260637,-8882.471304,-91165.364262
13561.658101,-1924.535449,-1628.453072,-84117.285680
13561.661370,-4145.153275,1332.370696,-82125.437386
13561.664639,-11399.171507,5625.565159,-68642.156621
13561.667908,-6217.729913,9178.553681,-62053.735338
13561.671177,-148.041188,-1184.329507,-80746.465489
13561.674447,-9918.759623,-4589.276840,-78601.398095
13561.677716,-5033.400406,6513.812290,-64352.021832
13561.680985,5921.647536,-2664.741391,-66650.308326
13561.684254,-21910.095883,3701.029710,-66803.527426
13561.687524,-5773.606348,15396.283594,-62206.954438
13561.690793,12139.377449,27387.619854,-74617.701505
13561.694062,24130.713709,-7402.059420,-130389.453760
13561.697331,13471.748144,-9770.718434,-150767.594006
13561.700601,-1628.453072,-1184.329507,-93157.212557
13561.703870,-21465.972318,22650.301825,-7814.174080
13561.707139,-1332.370696,22502.260637,-29724.505322
13561.710408,5329.482782,-9178.553681,-114914.324700
13561.713677,-6217.729913,5181.441594,-104188.987728
13561.716947,3256.906145,4145.153275,-99285.976541
13561.720216,-1036.288319,11695.253884,-70174.347617
13561.723485,2960.823768,19689.478057,-64658.460031
13561.726754,19097.313304,5625.565159,-82738.313784
13561.730024,-2960.823768,5921.647536,-85343.038477
13561.733293,-4737.318029,9030.512492,-85802.695776
13561.736562,14359.995275,14211.954086,-67416.403824
13561.739831,-4885.359217,10955.047942,-57150.724151
13561.743101,-3849.070898,15396.283594,-58682.915147
13561.746370,-1480.411884,-5181.441594,-88713.858668
13561.749639,-25315.043216,4737.318029,-74311.263306
13561.752908,-33309.267390,7550.100608,-54852.437657
13561.756178,15840.407159,25315.043216,-46425.387179
13561.759447,9622.677246,3552.988522,-114301.448302
13561.762716,3256.906145,-22058.137072,-149695.060309
13561.765985,-3256.906145,-4441.235652,-63892.364533
13561.769255,-30792.567187,25167.002028,26660.123330
13561.772524,-15840.407159,17912.983796,18539.511052
13561.775793,-7550.100608,-7698.141797,-64964.898230
13561.779062,-10362.883188,-5181.441594,-114607.886501
13561.782332,-8734.430116,6957.935855,-98366.661943
13561.785601,3849.070898,12435.459826,-68795.375720
13561.788870,-2664.741391,13471.748144,-64811.679131
13561.792140,2368.659014,7254.018232,-78754.617194
13561.795409,10214.842000,-740.205942,-98366.661943
13561.798678,-8290.306550,296.082377,-82585.094684
13561.801947,-22798.343014,-1480.411884,-59142.572446
13561.805217,-9770.718434,8142.265362,-44739.977083
13561.808486,-5181.441594,-2960.823768,-47804.359075
13561.811755,-25907.207970,-1036.288319,-63279.488135
13561.815024,-15840.407159,8290.306550,-69101.813920
13561.818294,-3849.070898,36714.214723,-63126.269035
13561.821563,56699.775157,6069.688724,-126865.414469
13561.824832,3256.906145,-20281.642811,-151227.251305
13561.828102,-296.082377,-6513.812290,-133607.054851
13561.831371,-11399.171507,14508.036463,-15015.471761
13561.834640,-8734.430116,31236.690752,11797.870669
13561.837909,3108.864956,-2516.700203,-80286.808190
13561.841179,-4885.359217,-6957.935855,-112003.161808
13561.844448,148.041188,3849.070898,-93616.869856
13561.847717,-592.164754,15988.448347,-75537.016103
13561.850986,12435.459826,11843.295072,-62206.954438
13561.854217,8882.471304,10362.883188,-78141.740796
13561.857447,-2516.700203,11547.212695,-89326.735067
13561.860677,7994.224174,3404.947333,-86262.353075
13561.863907,3404.947333,18801.230927,-78754.617194
13561.867138,1924.535449,15988.448347,-56997.505051
13561.870368,-13323.706956,10510.924376,-63126.269035
13561.873598,7105.977043,7402.059420,-83044.751983
13561.876828,10807.006753,-7550.100608,-101277.824836
13561.880059,-22206.178260,-14211.954086,-85649.476676
13561.883289,-46632.974346,-5773.606348,-70787.224015
13561.886519,-13471.748144,29312.155303,0.000000
13561.889749,3701.029710,11251.130318,-58070.038748
13561.892980,13767.830521,-15396.283594,-158581.768086
13561.896210,3849.070898,-20133.601622,-134066.712150
13561.899440,-12879.583391,16728.654289,-29264.848024
13561.902670,-4885.359217,17468.860231,-26966.561530
13561.905901,-3552.988522,13027.624579,-41675.595091
13561.909131,-7105.977043,-10066.800811,-85649.476676
13561.912361,-15692.365970,-4293.194464,-88100.982270
13561.915591,-14656.077652,4293.194464,-65271.336430
13561.918822,-5181.441594,3997.112087,-60981.201641
13561.922052,-16876.695478,7994.224174,-57303.943250
13561.925282,-15840.407159,-1332.370696,-71093.662214
13561.928512,1184.329507,2220.617826,-86875.229473
13561.931742,-2664.741391,-5329.482782,-95455.499051
13561.934973,296.082377,9178.553681,-75383.797003
13561.938203,14656.077652,11843.295072,-79827.150892
13561.941433,38046.585419,22206.178260,-95149.060852
13561.944663,148.041188,-17320.819043,-130389.453760
13561.947894,-20133.601622,-3552.988522,-61594.078039
13561.951124,-12583.501014,30496.484810,18539.511052
13561.954354,-11547.212695,15100.201217,-47191.482677
13561.957590,10510.924376,-11251.130318,-161799.369178
13561.960827,9474.636058,-740.205942,-150920.813106
13561.964063,7254.018232,10362.883188,-98673.100142
13561.967300,0.000000,15544.324782,-52554.151163
13561.970536,4293.194464,16876.695478,-55005.656756
13561.973772,-1036.288319,888.247130,-79827.150892
13561.977009,1924.535449,3997.112087,-84423.723880
13561.980245,-148.041188,10658.965565,-79367.493593
13561.983481,888.247130,8290.306550,-76149.892501
13561.986718,-4737.318029,18653.189738,-70327.566716
13561.989954,5181.441594,11399.171507,-83197.971083
13561.993190,-3404.947333,11399.171507,-88407.420469
13561.996427,13471.748144,8734.430116,-82125.437386
13561.999663,14508.036463,-3552.988522,-99592.414740
13562.002899,-13175.665768,-10807.006753,-88867.077768
13562.006136,-42783.903448,11103.089130,-38611.213099
13562.009372,1036.288319,32421.020260,-18233.072852
13562.012608,9474.636058,-888.247130,-111237.066310
13562.015845,13027.624579,-4885.359217,-134679.588548
13562.019081,6513.812290,-17764.942608,-155364.166994
13562.022317,-6957.935855,13175.665768,-66956.746525
13562.025554,2072.576638,18357.107362,-37079.022103
13562.028790,-9178.553681,1924.535449,-59602.229744
13562.032026,-15988.448347,-8882.471304,-87641.324971
13562.035267,-17764.942608,2072.576638,-81512.560987
13562.038508,-11399.171507,888.247130,-70787.224015
13562.041750,-6513.812290,592.164754,-70940.443115
13562.044991,-2368.659014,3997.112087,-74464.482406
13562.048232,-10955.047942,-5773.606348,-81512.560987
13562.051473,-9178.553681,888.247130,-75843.454302
13562.054714,4441.235652,-4441.235652,-75230.577904
13562.057955,-15248.242405,4737.318029,-62206.954438
13562.061196,-9918.759623,17912.983796,-50255.864669
13562.064437,12435.459826,30940.608376,-66956.746525
13562.067679,32717.102636,20429.683999,-78294.959896
13562.070920,15988.448347,-9474.636058,-153372.318700
13562.074161,888.247130,-1036.288319,-107253.369720
13562.077402,-17320.819043,18061.024985,-9959.241474
13562.080643,-7105.977043,23094.425390,-17007.320056
13562.083884,9918.759623,-6069.688724,-109858.094413
13562.087125,-9030.512492,-3108.864956,-105108.302326
13562.090366,-2368.659014,-4885.359217,-105874.397824
13562.093608,-1332.370696,11991.336260,-67722.842023
13562.096849,592.164754,13619.789333,-63126.269035
13562.100090,10955.047942,8586.388927,-72625.853210
13562.103331,-148.041188,11399.171507,-72319.415011
13562.106572,3849.070898,14063.912898,-75230.577904
13562.109813,888.247130,6069.688724,-74924.139704
13562.113054,10510.924376,17912.983796,-62973.049936
13562.116295,-1184.329507,-888.247130,-79367.493593
13562.119536,-25463.084405,9770.718434,-66956.746525
13562.122778,4737.318029,18357.107362,-59295.791545
13562.126019,9770.718434,21614.013506,-45046.415282
13562.129260,9326.594869,444.123565,-117672.268493
13562.132501,-3404.947333,-25018.960840,-146477.459218
13562.135742,-20281.642811,1036.288319,-52707.370262
13562.138987,-17172.777854,23834.631332,17620.196454
13562.142233,-12731.542202,15100.201217,4596.572988
13562.145478,-13323.706956,-6365.771101,-74464.482406
13562.148724,1184.329507,-4885.359217,-111543.504509
13562.151969,-4885.359217,740.205942,-90705.706963
13562.155215,-10955.047942,16136.489536,-57303.943250
13562.158460,-1776.494261,11547.212695,-59908.667944
13562.161705,-2812.782580,7846.182985,-62206.954438
13562.164951,-5625.565159,592.164754,-82431.875585
13562.168196,-10658.965565,-7105.977043,-92544.336158
13562.171442,-6365.771101,2960.823768,-70634.004916
13562.174687,-12583.501014,-5329.482782,-69561.471218
13562.177932,-7254.018232,8882.471304,-64811.679131
13562.181178,-17320.819043,17912.983796,-55618.533155
13562.184423,13915.871710,23982.672521,-90858.926063
13562.187669,31384.731941,-11843.295072,-141880.886230
13562.190914,-8734.430116,-8290.306550,-106487.274222
13562.194160,-5625.565159,22058.137072,-16241.224558
13562.197405,-11695.253884,26203.290347,-7201.297681
13562.200650,-8142.265362,20725.766376,-38764.432199
13562.203896,11695.253884,-4885.359217,-117365.830294
13562.207141,3997.112087,1776.494261,-111083.847210
13562.210387,-1776.494261,7846.182985,-73391.948708
13562.213632,4589.276840,20133.601622,-58223.257848
13562.216877,13619.789333,14211.954086,-67876.061123
13562.220123,3701.029710,5181.441594,-86415.572174
13562.223368,5033.400406,8586.388927,-81052.903688
13562.226614,7846.182985,17912.983796,-70480.785816
13562.229859,-8142.265362,4293.194464,-72472.634111
13562.233104,11103.089130,10510.924376,-75077.358804
13562.236350,6957.935855,3849.070898,-91012.145162
13562.239595,-19541.436869,-1628.453072,-78294.959896
13562.242844,-22946.384202,7698.141797,-42748.128788
13562.246093,11251.130318,22206.178260,-41369.156892
13562.249342,7846.182985,-3404.947333,-126865.414469
13562.252591,6661.853478,-27091.537477,-158122.110787
13562.255840,4441.235652,-19097.313304,-142800.200827
13562.259089,-15692.365970,10807.006753,-17926.634653
13562.262338,-10066.800811,17024.736666,9806.022374
13562.265587,-14359.995275,-6217.729913,-71859.757712
13562.268836,-4145.153275,-7550.100608,-109704.875314
13562.272085,-10214.842000,-10510.924376,-99898.852939
13562.275334,-9770.718434,11251.130318,-69255.033019
13562.278583,-3552.988522,18801.230927,-61440.858940
13562.281832,592.164754,5625.565159,-88560.639569
13562.285081,-2516.700203,-1480.411884,-100358.510238
13562.288330,-1184.329507,-9030.512492,-87488.105872
13562.291579,3256.906145,-592.164754,-89786.392366
13562.294828,1184.329507,7105.977043,-66650.308326
13562.298077,-21021.848753,-3997.112087,-65884.212828
13562.301326,-31236.690752,3849.070898,-48417.235474
13562.304575,-10955.047942,19541.436869,-33554.982812
13562.307824,28571.949361,20429.683999,-89939.611465
13562.311073,23242.466579,10807.006753,-118744.802190
13562.314322,9474.636058,-9326.594869,-166242.723066
13562.317571,1776.494261,-444.123565,-89633.173266
13562.320820,3997.112087,31828.855506,-3217.601092
13562.324069,-2516.700203,13767.830521,-32635.668215
13562.327318,3108.864956,9326.594869,-59755.448844
13562.330566,-7550.100608,-9178.553681,-98979.538342
13562.333815,-1776.494261,4441.235652,-83351.190182
13562.337064,1332.370696,8438.347739,-61287.639840
13562.340313,-1776.494261,16284.530724,-62206.954438
13562.343562,5033.400406,19097.313304,-79673.931792
13562.346814,-444.123565,6661.853478,-83351.190182
13562.350066,12583.501014,8882.471304,-89479.954166
13562.353318,-2812.782580,4145.153275,-77835.302597
13562.356570,4293.194464,20281.642811,-49642.988270
13562.359822,8586.388927,11399.171507,-73698.386908
13562.363074,-1480.411884,-6069.688724,-109704.875314
13562.366326,7994.224174,-27091.537477,-130083.015560
13562.369577,-37602.461854,-5773.606348,-57763.600549
13562.372829,-14063.912898,26795.455100,11644.651570
13562.376081,-888.247130,10658.965565,-59142.572446
13562.379333,-5921.647536,-21317.931130,-158122.110787
13562.382585,592.164754,-15396.283594,-145404.925520
13562.385837,740.205942,1628.453072,-100511.729338
13562.389089,-2516.700203,18653.189738,-46425.387179
13562.392341,888.247130,10510.924376,-56384.628653
13562.395592,-5625.565159,-4293.194464,-92391.117059
13562.398844,-7846.182985,-1628.453072,-92237.897959
13562.402096,-3849.070898,-7994.224174,-85496.257577
13562.405348,-13175.665768,-4145.153275,-67263.184724
13562.408600,-15248.242405,7402.059420,-54852.437657
13562.411852,3404.947333,-8142.265362,-75383.797003
13562.415104,-25759.166782,-7402.059420,-83504.409282
13562.418356,-16284.530724,20133.601622,-55924.971354
13562.421608,-3256.906145,22206.178260,-32635.668215
13562.424859,24278.754898,23834.631332,-62053.735338
13562.428111,12879.583391,-3997.112087,-144945.268222
13562.431363,8142.265362,-4737.318029,-120889.869584
13562.434615,-15840.407159,19985.560434,-17160.539155
13562.437867,-4885.359217,29904.320057,306.438199
13562.441119,6513.812290,15692.365970,-39224.089498
13562.444371,-6957.935855,-2220.617826,-102503.577632
13562.447623,-5181.441594,-1776.494261,-108172.684318
13562.450881,-2664.741391,7846.182985,-75690.235202
13562.454135,6365.771101,15988.448347,-61440.858940
13562.457389,8734.430116,19689.478057,-59449.010645
13562.460643,11251.130318,13175.665768,-84730.162079
13562.463898,-6661.853478,-148.041188,-97600.566445
13562.467152,6513.812290,6809.894666,-71093.662214
13562.470406,-4589.276840,3404.947333,-53320.246661
13562.473660,-20429.683999,28423.908173,-37845.117601
13562.476914,-1628.453072,22798.343014,-37079.022103
13562.480169,11695.253884,3256.906145,-91012.145162
13562.483423,-2960.823768,-23982.672521,-150154.717608
13562.486677,-6661.853478,-9178.553681,-87641.324971
13562.489931,-17468.860231,21317.931130,7354.516781
13562.493186,-21762.054695,29016.072926,17160.539155
13562.496440,-7698.141797,4589.276840,-53473.465760
13562.499694,3552.988522,-17764.942608,-136058.560445
13562.502948,-6809.894666,1184.329507,-110624.189911
13562.506203,2664.741391,13471.748144,-60368.325242
13562.509457,-3256.906145,10955.047942,-59755.448844
13562.512711,-2516.700203,9770.718434,-60827.982541
13562.515965,-10955.047942,-5625.565159,-87334.886772
13562.519219,-12731.542202,-10658.965565,-86875.229473
13562.522474,-5625.565159,5921.647536,-62053.735338
13562.525728,-9178.553681,6513.812290,-66037.431928
13562.528982,-7254.018232,11695.253884,-59602.229744
13562.532236,25611.125593,0.000000,-112922.476405
13562.535491,4293.194464,-13027.624579,-123188.156078
13562.538745,-30052.361245,-1776.494261,-59755.448844
13562.541999,-4589.276840,45300.603650,21910.331243
13562.545253,2812.782580,22798.343014,-49489.769171
13562.548508,-148.041188,5625.565159,-84423.723880
13562.551762,13915.871710,-20429.683999,-171605.391552
13562.554980,2812.782580,10807.006753,-94689.403553
13562.558197,2368.659014,32124.937883,-21910.331243
13562.561415,1480.411884,17172.777854,-46885.044478
13562.564633,2072.576638,6513.812290,-65118.117330
13562.567851,-888.247130,-5921.647536,-103116.454031
13562.571069,4293.194464,3404.947333,-87181.667672
13562.574286,5181.441594,19985.560434,-52707.370262
13562.577504,-11695.253884,22058.137072,-56537.847752
13562.580722,1480.411884,6365.771101,-91625.021561
13562.583940,-11251.130318,1776.494261,-90552.487864
13562.587158,21910.095883,13915.871710,-89786.392366
13562.590375,16432.571912,4737.318029,-98213.442844
13562.593593,-15100.201217,-6069.688724,-86568.791274
13562.596811,-43228.027013,7698.141797,-43207.786087
13562.600029,4145.153275,26203.290347,-15321.909960
13562.603247,-4885.359217,18505.148550,-19458.825649
13562.606464,5773.606348,-4737.318029,-123188.156078
13562.609682,1332.370696,-21614.013506,-155823.824293
13562.612900,-13471.748144,7698.141797,-67416.403824
13562.616118,888.247130,18061.024985,-31256.696318
13562.619336,6957.935855,20873.807564,-40756.280494
13562.622553,-8882.471304,1184.329507,-75690.235202
13562.625771,-6069.688724,-1184.329507,-102656.796732
13562.628989,-5921.647536,-4441.235652,-91318.583362
13562.632207,-12139.377449,-4145.153275,-65118.117330
13562.635425,-740.205942,4885.359217,-64045.583633
13562.638642,-11843.295072,148.041188,-71246.881314
13562.641860,2368.659014,3404.947333,-86875.229473
13562.645078,6513.812290,-14952.160028,-104495.425927
13562.648296,-24130.713709,-1628.453072,-61747.297139
13562.651514,-11399.171507,17320.819043,-12410.747068
13562.654731,9178.553681,30792.567187,-29571.286223
13562.657958,592.164754,22650.301825,-52860.589362
13562.661184,4145.153275,-8438.347739,-146017.801919
13562.664410,7994.224174,-10362.883188,-121962.403282
13562.667636,1628.453072,28571.949361,-27119.780629
13562.670862,1628.453072,21614.013506,-36772.583904
13562.674088,8586.388927,18801.230927,-60827.982541
13562.677314,-1332.370696,-4737.318029,-97907.004644
13562.680540,-5033.400406,148.041188,-95302.279951
13562.683767,2516.700203,11399.171507,-63432.707234
13562.686993,4293.194464,15692.365970,-55312.094956
13562.690219,-16580.613101,11399.171507,-63126.269035
13562.693445,2516.700203,4737.318029,-78141.740796
13562.696671,-10362.883188,4145.153275,-76456.330700
13562.699897,20281.642811,18801.230927,-70327.566716
13562.703123,19245.354492,2664.741391,-93770.088955
13562.706349,-12879.583391,-9326.594869,-98519.881043
13562.709575,-22354.219448,-21465.972318,-102656.796732
13562.712802,-21910.095883,11547.212695,-21144.235745
13562.716028,-6809.894666,20873.807564,-1378.971896
13562.719254,9178.553681,444.123565,-101124.605736
13562.722480,-2664.741391,-24130.713709,-166702.380365
13562.725706,-12139.377449,6217.729913,-92697.555258
13562.728932,1480.411884,10658.965565,-79214.274493
13562.732158,4885.359217,18209.066173,-40143.404095
13562.735384,-9918.759623,7994.224174,-64505.240932
13562.738611,2368.659014,-4441.235652,-96987.690047
13562.741837,-14656.077652,-8586.388927,-89939.611465
13562.745063,-14656.077652,-10658.965565,-87641.324971
13562.748289,-2960.823768,6069.688724,-57610.381450
13562.751515,-18357.107362,2220.617826,-54545.999458
13562.754741,-12731.542202,9474.636058,-67876.061123
13562.757967,23834.631332,-888.247130,-116446.515696
13562.761162,17912.983796,-5921.647536,-115067.543800
13562.764358,-3552.988522,-13027.624579,-131002.330158
13562.767553,-2072.576638,12139.377449,-43820.662486
13562.770748,-15544.324782,33901.432144,14096.157163
13562.773943,-3108.864956,13175.665768,-53933.123059
13562.777138,15248.242405,-18209.066173,-152146.565903
13562.780333,-4293.194464,-8290.306550,-137284.313242
13562.783528,6365.771101,16876.695478,-84117.285680
13562.786724,444.123565,14359.995275,-49489.769171
13562.789919,3552.988522,15544.324782,-64505.240932
13562.793114,8586.388927,2664.741391,-90858.926063
13562.796309,10066.800811,-296.082377,-97447.347346
13562.799504,1776.494261,14656.077652,-82431.875585
13562.802699,-1924.535449,10362.883188,-71246.881314
13562.805894,3404.947333,13619.789333,-62360.173537
13562.809089,2368.659014,2664.741391,-84117.285680
13562.812285,-15840.407159,1480.411884,-77528.864398
13562.815480,-30200.402434,-148.041188,-61747.297139
13562.818675,-1776.494261,20133.601622,-37538.679402
13562.821870,6069.688724,9622.677246,-96528.032748
13562.825065,11695.253884,-25907.207970,-161799.369178
13562.828260,-15840.407159,-11991.336260,-82431.875585
13562.831455,-23834.631332,24870.919651,15781.567259
13562.834651,-13619.789333,19837.519246,10878.556072
13562.837820,-14952.160028,7254.018232,-45352.853482
13562.840989,6957.935855,-12435.459826,-113535.352804
13562.844158,-9622.677246,-9770.718434,-111543.504509
13562.847327,-8290.306550,17616.901420,-58376.476948
13562.850496,-592.164754,14952.160028,-49030.111872
13562.853665,-13471.748144,-592.164754,-59449.010645
13562.856834,3849.070898,1480.411884,-82125.437386
13562.860003,-4293.194464,-4737.318029,-93616.869856
13562.863172,2516.700203,8438.347739,-76303.111601
13562.866341,-3849.070898,-6069.688724,-80593.246390
13562.869510,1924.535449,-5033.400406,-89173.515967
13562.872679,-27683.702231,0.000000,-56078.190454
13562.875848,-7994.224174,37158.338288,-4596.572988
13562.879017,7994.224174,19393.395680,-69408.252119
13562.882186,9770.718434,-7402.059420,-151380.470405
13562.885355,2960.823768,-6809.894666,-124720.347074
13562.888524,4441.235652,4885.359217,-93770.088955
13562.891693,148.041188,25611.125593,-33401.763713
13562.894862,1036.288319,18505.148550,-39990.184996
13562.898031,-3404.947333,-5477.523971,-93770.088955
13562.901200,-1924.535449,3552.988522,-97294.128246
13562.904369,5625.565159,12139.377449,-87334.886772
13562.907538,7402.059420,17320.819043,-66343.870127
13562.910707,-7846.182985,14211.954086,-71400.100414
13562.913876,9474.636058,13175.665768,-85036.600278
13562.917045,7698.141797,-4589.276840,-103116.454031
13562.920214,-22502.260637,11547.212695,-59602.229744
13562.923383,-27683.702231,13915.871710,-42135.252390
13562.926552,10214.842000,20725.766376,-34780.735609
13562.929721,-592.164754,-1776.494261,-112616.038206
13562.932890,5033.400406,-27535.661042,-152299.785002
13562.936059,-18209.066173,-6809.894666,-56844.285952
13562.939208,-24426.796086,32421.020260,21603.893044
13562.942357,-10066.800811,24278.754898,3830.477490
13562.945506,-5625.565159,-6661.853478,-81665.780087
13562.948655,-12287.418637,-6809.894666,-120430.212286
13562.951804,-9030.512492,1036.288319,-89020.296868
13562.954953,-12435.459826,14952.160028,-47497.920876
13562.958102,-16284.530724,17616.901420,-37998.336701
13562.961251,-7105.977043,592.164754,-66650.308326
13562.964400,4145.153275,2220.617826,-96987.690047
13562.967549,-6957.935855,-6809.894666,-97600.566445
13562.970698,-4145.153275,6365.771101,-67109.965625
13562.973847,9474.636058,-592.164754,-77682.083497
13562.976996,22058.137072,6069.688724,-93463.650756
13562.980145,-22650.301825,-13767.830521,-92697.555258
13562.983294,-17468.860231,19837.519246,-20684.578446
13562.986443,-10510.924376,31680.814318,-17926.634653
13562.989592,12287.418637,1628.453072,-116293.296596
13562.992741,7402.059420,-11991.336260,-144638.830022
13562.995890,3849.070898,444.123565,-131921.644756
13562.999039,10066.800811,16432.571912,-62360.173537
13563.002188,-2516.700203,27239.578666,-31103.477219
13563.005337,2960.823768,9622.677246,-68642.156621
13563.008486,4885.359217,-3404.947333,-105414.740525
13563.011635,592.164754,7994.224174,-87028.448573
13563.014784,-2516.700203,11695.253884,-71553.319513
13563.017934,-4441.235652,16432.571912,-49642.988270
13563.021083,-11695.253884,17912.983796,-59602.229744
13563.024232,24426.796086,9178.553681,-95915.156350
13563.027381,9622.677246,-14063.912898,-117825.487592
13563.030530,-15100.201217,-9622.677246,-113075.695505
13563.033679,-35825.967593,6661.853478,-41369.156892
13563.036828,-740.205942,29016.072926,-9039.926876
13563.039961,13619.789333,-1036.288319,-94229.746254
13563.043094,6513.812290,-28719.990550,-161033.273680
13563.046228,-21465.972318,-8734.430116,-85036.600278
13563.049361,-11991.336260,12287.418637,-54086.342159
13563.052494,0.000000,20133.601622,-12717.185267
13563.055628,-2220.617826,6661.853478,-60061.887043
13563.058761,-9622.677246,-10955.047942,-112156.380907
13563.061895,-12731.542202,-3701.029710,-88867.077768
13563.065028,-18505.148550,-6069.688724,-73391.948708
13563.068161,-296.082377,7698.141797,-51021.960167
13563.071295,3849.070898,7402.059420,-73698.386908
13563.074428,3256.906145,-15100.201217,-107100.150620
13563.077561,-29608.237680,-8734.430116,-87794.544071
13563.080695,-16432.571912,23834.631332,-25434.370534
13563.083828,-7550.100608,32865.143825,5056.230287
13563.086961,30200.402434,31532.773129,-51021.960167
13563.090095,9918.759623,-10362.883188,-168694.228660
13563.093228,888.247130,-5477.523971,-138510.066038
13563.096361,-2368.659014,26795.455100,-12563.966167
13563.099495,6069.688724,32865.143825,-919.314598
13563.102628,-1480.411884,14952.160028,-42594.909689
13563.105761,-4589.276840,-5033.400406,-102963.234931
13563.108895,-1776.494261,-10066.800811,-109091.998915
13563.112028,-9178.553681,10510.924376,-61900.516238
13563.115162,10807.006753,19985.560434,-44433.538884
13563.118295,-3849.070898,18801.230927,-52554.151163
13563.121428,-12435.459826,7402.059420,-78907.836294
13563.124562,11103.089130,13915.871710,-91778.240660
13563.127695,15544.324782,5773.606348,-94842.622652
13563.130828,-11991.336260,7994.224174,-68335.718422
13563.133962,-10807.006753,13619.789333,-42901.347888
13563.137095,-8586.388927,21021.848753,-32942.106414
13563.140216,5033.400406,13915.871710,-78601.398095
13563.143338,7105.977043,-25315.043216,-149235.403010
13563.146459,-13915.871710,-17468.860231,-101277.824836
13563.149580,-25315.043216,24278.754898,-3064.381992
13563.152702,-19245.354492,23982.672521,1072.533697
13563.155823,-8142.265362,3997.112087,-57763.600549
13563.158944,0.000000,-7105.977043,-117519.049393
13563.162066,-6809.894666,-6661.853478,-106180.836023
13563.165187,-13175.665768,12583.501014,-52247.712964
13563.168308,-4737.318029,11991.336260,-41522.375992
13563.171430,5477.523971,2072.576638,-58070.038748
13563.174551,-5329.482782,-2812.782580,-92850.774358
13563.177673,3552.988522,-8586.388927,-94382.965354
13563.180794,-31088.649564,-1776.494261,-57150.724151
13563.183915,-17468.860231,24278.754898,-28345.533426
13563.187037,23390.507767,28423.908173,-72012.976812
13563.190158,29460.196492,16728.654289,-89326.735067
13563.193279,5921.647536,-10362.883188,-174056.897146
13563.196401,3108.864956,1924.535449,-109704.875314
13563.199522,-5773.606348,32717.102636,1532.190996
13563.202643,-2960.823768,19985.560434,-22216.769442
13563.205765,2072.576638,-10955.047942,-56997.505051
13563.208886,-10066.800811,-7550.100608,-110164.532612
13563.212007,-4589.276840,-592.164754,-95608.718150
13563.215129,1628.453072,14804.118840,-54239.561258
13563.218250,10955.047942,21317.931130,-56997.505051
13563.221371,6957.935855,8734.430116,-88254.201370
13563.224493,2960.823768,8438.347739,-92850.774358
13563.227614,-5477.523971,9030.512492,-90552.487864
13563.230735,22798.343014,18061.024985,-67876.061123
13563.233857,2220.617826,-592.164754,-63432.707234
13563.236978,-42043.697506,-1184.329507,-52860.589362
13563.240091,148.041188,15988.448347,-53320.246661
13563.243203,9918.759623,21465.972318,-41675.595091
13563.246315,3701.029710,-7994.224174,-120123.774086
13563.249428,9474.636058,-22650.301825,-152453.004102
13563.252540,-17172.777854,1184.329507,-65271.336430
13563.255653,-18801.230927,20281.642811,-919.314598
13563.258765,1036.288319,15396.283594,-23902.179538
13563.261878,4441.235652,6217.729913,-73238.729609
13563.264990,-13471.748144,-11991.336260,-113228.914604
13563.268103,-8586.388927,-444.123565,-93003.993457
13563.271215,-10510.924376,5033.400406,-57610.381450
13563.274327,1480.411884,2368.659014,-60827.982541
13563.277440,-7402.059420,296.082377,-74617.701505
13563.280552,-3701.029710,5033.400406,-83197.971083
13563.283665,-1332.370696,-12731.542202,-97294.128246
13563.286777,-21614.013506,-592.164754,-64198.802732
13563.289890,-6957.935855,18357.107362,-20684.578446
13563.293002,-5329.482782,39230.914926,612.876398
13563.296115,-740.205942,20577.725188,-58682.915147
13563.299227,7402.059420,-3849.070898,-148622.526612
13563.302339,8438.347739,-5773.606348,-126099.318971
13563.305452,11991.336260,24574.837274,-29724.505322
13563.308564,-5329.482782,17616.901420,-34474.297410
13563.311677,-2220.617826,-2072.576638,-82125.437386
13563.314789,2812.782580,-3256.906145,-93463.650756
13563.317902,-1924.535449,740.205942,-83351.190182
13563.321014,-1628.453072,18357.107362,-57610.381450
13563.324127,-3108.864956,12583.501014,-61747.297139
13563.327239,-2516.700203,8734.430116,-83351.190182
13563.330352,888.247130,1332.370696,-96681.251848
13563.333464,296.082377,16136.489536,-86875.229473
13563.336576,15248.242405,19245.354492,-72779.072310
13563.339683,6365.771101,296.082377,-91778.240660
13563.342789,-18505.148550,-22798.343014,-98060.223744
13563.345895,-27831.743419,3108.864956,-32635.668215
13563.349001,-17616.901420,8438.347739,-4903.011187
13563.352107,-3997.112087,25167.002028,-15321.909960
13563.355213,-11991.336260,-10510.924376,-126865.414469
13563.358320,2664.741391,-11991.336260,-142800.200827
13563.361426,-6513.812290,11103.089130,-77682.083497
13563.364532,4737.318029,22058.137072,-37998.336701
13563.367638,-296.082377,14359.995275,-48876.892772
13563.370744,-8290.306550,-3404.947333,-77835.302597
13563.373851,-12583.501014,-13175.665768,-98060.223744
13563.376957,2516.700203,-3404.947333,-77069.207099
13563.380063,-11399.171507,-2072.576638,-53473.465760
13563.383169,-28127.825796,3997.112087,-51634.836565
13563.386275,-15396.283594,17024.736666,-42288.471490
13563.389381,6661.853478,23686.590144,-67722.842023
13563.392488,44412.356520,2516.700203,-135445.684046
13563.395594,5921.647536,-8734.430116,-143566.296325
13563.398700,-10362.883188,14359.995275,-45352.853482
13563.401806,-5477.523971,33309.267390,8427.050478
13563.404912,-3701.029710,19541.436869,-15628.348159
13563.408019,-3997.112087,-3404.947333,-81359.341888
13563.411125,-2072.576638,-888.247130,-101431.043935
13563.414231,1480.411884,5033.400406,-85802.695776
13563.417337,-1036.288319,13471.748144,-67416.403824
13563.420443,19245.354492,16432.571912,-70327.566716
13563.423549,1776.494261,8438.347739,-80746.465489
13563.426656,-4145.153275,8438.347739,-78754.617194
13563.429762,-2664.741391,7105.977043,-65884.212828
13563.432868,9622.677246,26055.249158,-45046.415282
13563.435974,4885.359217,5329.482782,-81665.780087
13563.439126,-11547.212695,-13619.789333,-102197.139433
13563.442265,-33901.432144,-22058.137072,-93770.088955
13563.445405,-15692.365970,13767.830521,-28039.095227
13563.448544,6957.935855,15100.201217,-31716.353617
13563.451683,8882.471304,-6513.812290,-121655.965082
13563.454822,-7994.224174,-18801.230927,-145558.144620
13563.457961,-9918.759623,8290.306550,-53933.123059
13563.461100,1776.494261,15100.201217,-49796.207370
13563.464240,1776.494261,25315.043216,-29724.505322
13563.467379,0.000000,-148.041188,-89479.954166
13563.470518,-19393.395680,-10658.965565,-113535.352804
13563.473657,-9326.594869,-6661.853478,-80899.684589
13563.476796,-3997.112087,7254.018232,-49336.550071
13563.479935,-7698.141797,1184.329507,-52554.151163
13563.483075,-29312.155303,-888.247130,-62973.049936
13563.486214,-13175.665768,13767.830521,-67263.184724
13563.489353,17024.736666,26795.455100,-88100.982270
13563.492492,44264.315332,-2664.741391,-131461.987457
13563.495631,-3108.864956,-3256.906145,-147703.212014
13563.498770,-3404.947333,4441.235652,-93463.650756
13563.501910,-2072.576638,31384.731941,-7201.297681
13563.505049,-5921.647536,9474.636058,-30184.162621
13563.508188,-6809.894666,-5773.606348,-96834.470947
13563.511327,4145.153275,1776.494261,-104648.645027
13563.514466,3108.864956,7698.141797,-83351.190182
13563.517605,444.123565,10066.800811,-75383.797003
13563.520745,17024.736666,16136.489536,-77835.302597
13563.523884,1628.453072,9474.636058,-86568.791274
13563.527023,-888.247130,6513.812290,-79673.931792
13563.530162,-3108.864956,3552.988522,-63126.269035
13563.533301,3552.988522,30496.484810,-37079.022103
13563.536440,5921.647536,21021.848753,-47038.263577
13563.539608,1036.288319,-7698.141797,-95455.499051
13563.542776,-32124.937883,-28275.866984,-113995.010102
13563.545944,-15544.324782,8142.265362,-41982.033290
13563.549112,-3256.906145,21465.972318,-11491.432470
13563.552279,6957.935855,3997.112087,-100664.948437
13563.555447,-5181.441594,-9770.718434,-136518.217744
13563.558615,8438.347739,-13915.871710,-139276.161536
13563.561783,-8734.430116,11251.130318,-62053.735338
13563.564950,1332.370696,26203.290347,-24821.494135
13563.568118,-888.247130,-1332.370696,-75690.235202
13563.571286,-16876.695478,-8438.347739,-84730.162079
13563.574454,-8586.388927,-7550.100608,-101277.824836
13563.577621,444.123565,148.041188,-79673.931792
13563.580789,-1184.329507,9770.718434,-58989.353346
13563.583957,-14211.954086,-10807.006753,-87947.763170
13563.587125,-23834.631332,-888.247130,-76149.892501
13563.590292,-15840.407159,3701.029710,-55158.875856
13563.593460,7994.224174,41303.491564,-25127.932334
13563.596628,10362.883188,19985.560434,-91012.145162
13563.599796,6217.729913,-5033.400406,-150614.374907
13563.602964,6513.812290,3256.906145,-92391.117059
13563.606131,2812.782580,20725.766376,-18539.511052
13563.609299,-1184.329507,12879.583391,-40143.404095
13563.612467,148.041188,11991.336260,-58223.257848
13563.615658,-6661.853478,-2812.782580,-89939.611465
13563.618849,740.205942,7550.100608,-85036.600278
13563.622039,4737.318029,15988.448347,-69101.813920
13563.625230,-5625.565159,16728.654289,-70174.347617
13563.628421,-7550.100608,19689.478057,-68029.280222
13563.631612,26943.496289,14804.118840,-101431.043935
13563.634803,1036.288319,-3404.947333,-109245.218015
13563.637994,-26055.249158,8586.388927,-56691.066852
13563.641184,6513.812290,22354.219448,-23902.179538
13563.644375,-3701.029710,3404.947333,-24974.713235
13563.647566,1924.535449,-12287.418637,-122115.622381
13563.650757,5773.606348,-28719.990550,-148009.650214
13563.653948,-23982.672521,10510.924376,-45812.510780
13563.657138,-14508.036463,25463.084405,-4596.572988
13563.660329,-12287.418637,148.041188,-70940.443115
13563.663520,296.082377,-9770.718434,-122728.498780
13563.666711,-7254.018232,-4737.318029,-110011.313513
13563.669902,-10658.965565,-4293.194464,-87947.763170
13563.673093,1036.288319,9918.759623,-62666.611736
13563.676283,740.205942,2812.782580,-76609.549800
13563.679474,-6217.729913,-15396.283594,-88713.858668
13563.682665,-30496.484810,-2960.823768,-54086.342159
13563.685856,-14656.077652,17764.942608,-35393.612008
13563.689047,14804.118840,33013.185013,-44433.538884
13563.692238,28275.866984,296.082377,-123801.032477
13563.695428,2516.700203,-12583.501014,-146477.459218
13563.698619,-9622.677246,10658.965565,-48264.016374
13563.701810,-13619.789333,36122.049970,10878.556072
13563.705001,-888.247130,19689.478057,-18079.853753
13563.708192,2812.782580,-5921.647536,-90092.830565
13563.711383,-5773.606348,296.082377,-110317.751712
13563.714573,4885.359217,9030.512492,-83810.847481
13563.717786,5477.523971,17320.819043,-55158.875856
13563.720998,8438.347739,21614.013506,-57763.600549
13563.724210,2812.782580,10066.800811,-80133.589091
13563.727422,10955.047942,10658.965565,-89939.611465
13563.730634,5329.482782,8290.306550,-87641.324971
13563.733846,-13323.706956,15100.201217,-58376.476948
13563.737058,-2516.700203,22058.137072,-48417.235474
13563.740270,5329.482782,4145.153275,-41982.033290
13563.743482,5773.606348,-12435.459826,-124413.908875
13563.746694,-10510.924376,-30496.484810,-146171.021018
13563.749906,-18801.230927,-4145.153275,-51021.960167
13563.753118,-8438.347739,32272.979071,11031.775171
13563.756331,-10955.047942,7698.141797,-78448.178995
13563.759543,-11843.295072,-2220.617826,-95302.279951
13563.762755,4737.318029,-19245.354492,-128704.043664
13563.765967,-3997.112087,9770.718434,-79673.931792
13563.769179,-5625.565159,13175.665768,-49642.988270
13563.772391,2516.700203,-3552.988522,-71400.100414
13563.775603,-14211.954086,-3849.070898,-90552.487864
13563.778815,1924.535449,-13767.830521,-98213.442844
13563.782027,-27239.578666,-5181.441594,-61134.420740
13563.785239,-22354.219448,21910.095883,-24668.275036
13563.788451,25315.043216,22946.384202,-80440.027290
13563.791663,22650.301825,-13471.748144,-156743.138891
13563.794875,-8734.430116,148.041188,-106793.712421
13563.798088,-1776.494261,3701.029710,-88713.858668
13563.801300,-3256.906145,35677.926404,153.219100
13563.804512,-8438.347739,12583.501014,-35393.612008
13563.807724,7550.100608,-9474.636058,-116140.077497
13563.810936,4293.194464,1036.288319,-112156.380907
13563.814148,1184.329507,19097.313304,-61900.516238
13563.817360,8290.306550,14508.036463,-54545.999458
13563.820590,888.247130,17468.860231,-62053.735338
13563.823820,-1776.494261,10066.800811,-79673.931792
13563.827050,10214.842000,7846.182985,-79673.931792
13563.830280,1924.535449,14211.954086,-75690.235202
13563.833510,-12435.459826,16284.530724,-65884.212828
13563.836740,-21465.972318,8882.471304,-53013.808462
13563.839970,2072.576638,15100.201217,-53626.684860
13563.843200,1184.329507,1036.288319,-107100.150620
13563.846430,4737.318029,-27239.578666,-143566.296325
13563.849660,-18505.148550,-9474.636058,-74311.263306
13563.852891,-10066.800811,27831.743419,-459.657299
13563.856121,-6217.729913,19097.313304,-13636.499864
13563.859351,-19837.519246,-2960.823768,-68795.375720
13563.862581,-8586.388927,-9474.636058,-110930.628110
13563.865811,2664.741391,2664.741391,-87488.105872
13563.869041,-12731.542202,7254.018232,-59295.791545
13563.872271,9178.553681,4589.276840,-70021.128517
13563.875501,-3108.864956,1036.288319,-86262.353075
13563.878731,9178.553681,-888.247130,-98519.881043
13563.881961,-13767.830521,-17320.819043,-88100.982270
13563.885191,-27979.784608,8882.471304,-38764.432199
13563.888421,-4293.194464,33901.432144,-20991.016645
13563.891651,38490.708984,13619.789333,-99285.976541
13563.894881,5477.523971,-10658.965565,-173137.582548
13563.898111,7994.224174,-9918.759623,-175895.526341
13563.901341,4441.235652,8142.265362,-71706.538613
13563.904571,-3256.906145,23834.631332,612.876398
13563.907801,-3552.988522,5625.565159,-48876.892772
13563.911031,-740.205942,-6217.729913,-108172.684318
13563.914261,-4293.194464,2516.700203,-97447.347346
13563.917491,740.205942,14656.077652,-84576.942979
13563.920721,13027.624579,16136.489536,-75996.673402
13563.923929,3552.988522,12287.418637,-71859.757712
13563.927136,-4145.153275,5625.565159,-76456.330700
13563.930343,17024.736666,20133.601622,-63432.707234
13563.933550,6957.935855,12583.501014,-79061.055394
13563.936757,-10955.047942,-3997.112087,-79827.150892
13563.939964,-35825.967593,-11991.336260,-63279.488135
13563.943171,-7402.059420,14508.036463,-21757.112143
13563.946378,1776.494261,1776.494261,-63432.707234
13563.949585,6513.812290,-17468.860231,-142800.200827
13563.952792,-1332.370696,-10955.047942,-149388.622110
13563.955999,-5181.441594,6661.853478,-88100.982270
13563.959207,592.164754,10955.047942,-38764.432199
13563.962414,-8438.347739,7550.100608,-51328.398366
13563.965621,-9474.636058,-9178.553681,-85649.476676
13563.968828,-21021.848753,-11399.171507,-86415.572174
13563.972035,-15988.448347,296.082377,-68795.375720
13563.975242,-10362.883188,-1628.453072,-65118.117330
13563.978449,-15544.324782,1184.329507,-63892.364533
13563.981656,7254.018232,7698.141797,-87181.667672
13563.984863,33457.308578,-2960.823768,-120276.993186
13563.988070,-17764.942608,-8290.306550,-100205.291138
13563.991278,-11251.130318,11103.089130,-78141.740796
13563.994485,-7994.224174,28127.825796,3217.601092
13563.997692,-9178.553681,24130.713709,-18386.291952
13564.000899,1184.329507,-9178.553681,-112462.819106
13564.004106,6217.729913,-7105.977043,-128550.824564
13564.007313,9622.677246,11991.336260,-79827.150892
13564.010520,10658.965565,19393.395680,-73238.729609
13564.013727,5181.441594,11991.336260,-63585.926334
13564.016934,-4293.194464,14211.954086,-64198.802732
13564.020141,-9178.553681,4737.318029,-65271.336430
13564.023349,148.041188,9326.594869,-70480.785816
13564.026537,9918.759623,18801.230927,-81972.218286
13564.029725,-2072.576638,9622.677246,-87028.448573
13564.032914,-20281.642811,-4441.235652,-85955.914876
13564.036102,-10066.800811,11251.130318,-62053.735338
13564.039291,10066.800811,14211.954086,-69255.033019
13564.042479,5625.565159,-22650.301825,-126099.318971
13564.045667,-14656.077652,-16876.695478,-108785.560716
13564.048856,-8438.347739,2072.576638,-85955.914876
13564.052044,-13915.871710,17912.983796,-17160.539155
13564.055233,-16876.695478,6661.853478,-39377.308597
13564.058421,-6217.729913,-12287.418637,-93310.431656
13564.061609,-13767.830521,-4293.194464,-99439.195640
13564.064798,-7994.224174,2960.823768,-87488.105872
13564.067986,1332.370696,10510.924376,-68948.594820
13564.071175,-9326.594869,-3256.906145,-76762.768900
13564.074363,-12139.377449,6217.729913,-71093.662214
13564.077552,18653.189738,-7254.018232,-91165.364262
13564.080740,1332.370696,-8438.347739,-93157.212557
13564.083928,-12139.377449,-5921.647536,-109704.875314
13564.087117,-5329.482782,26795.455100,-26047.246932
13564.090305,-15692.365970,31088.649564,-306.438199
13564.093494,2072.576638,13471.748144,-78907.836294
13564.096682,12435.459826,-17468.860231,-152453.004102
13564.099870,3404.947333,3849.070898,-99898.852939
13564.103059,13767.830521,13619.789333,-86568.791274
13564.106247,11399.171507,15692.365970,-57916.819649
13564.109436,-8882.471304,13619.789333,-57303.943250
13564.112624,-5625.565159,13767.830521,-62053.735338
13564.115812,-1924.535449,4589.276840,-69714.690318
13564.119001,-2220.617826,15396.283594,-74464.482406
13564.122189,17320.819043,17320.819043,-92237.897959
13564.125378,3701.029710,3108.864956,-101124.605736
13564.128589,-28423.908173,-1480.411884,-83197.971083
13564.131799,-3552.988522,13471.748144,-52400.932063
13564.135010,6957.935855,8586.388927,-66497.089226
13564.138221,-1036.288319,-20873.807564,-124567.127975
13564.141432,1184.329507,-18209.066173,-136058.560445
13564.144643,-5625.565159,-888.247130,-86722.010374
13564.147854,-20133.601622,23242.466579,-15781.567259
13564.151065,-8142.265362,2960.823768,-50255.864669
13564.154276,-7105.977043,-12731.542202,-104035.768628
13564.157487,-15248.242405,2072.576638,-91625.021561
13564.160698,-3701.029710,-7550.100608,-82431.875585
13564.163908,-2220.617826,7698.141797,-66190.651027
13564.167119,-13027.624579,-1776.494261,-81206.122788
13564.170330,-11103.089130,-3849.070898,-72625.853210
13564.173541,7105.977043,6365.771101,-73698.386908
13564.176752,25315.043216,3256.906145,-93157.212557
13564.179963,16876.695478,-2812.782580,-125946.099871
13564.183174,-9178.553681,11103.089130,-81665.780087
13564.186385,-17320.819043,29164.114115,-5209.449386
13564.189596,-2664.741391,18949.272115,-25740.808733
13564.192806,740.205942,-9474.636058,-115680.420198
13564.196017,8734.430116,-3552.988522,-121196.307784
13564.199228,8142.265362,2516.700203,-112769.257306
13564.202439,8438.347739,13027.624579,-79827.150892
13564.205650,1480.411884,12139.377449,-56078.190454
13564.208861,-4145.153275,8586.388927,-51021.960167
13564.212072,-5773.606348,14359.995275,-56537.847752
13564.215283,-888.247130,7254.018232,-71400.100414
13564.218494,8734.430116,22354.219448,-67569.622924
13564.221705,7105.977043,11547.212695,-95455.499051
13564.224915,-3997.112087,-8586.388927,-101277.824836
13564.228126,-35974.008781,-10658.965565,-72319.415011
13564.231357,-3108.864956,17616.901420,-19765.263848
13564.234587,3701.029710,-1184.329507,-57610.381450
13564.237817,7846.182985,6661.853478,-81665.780087
13564.241047,-3404.947333,-10214.842000,-142340.543528
13564.244278,-3849.070898,4885.359217,-89479.954166
13564.247508,-4441.235652,11103.089130,-41675.595091
13564.250738,-11103.089130,9918.759623,-56537.847752
13564.253969,-9030.512492,-8734.430116,-92544.336158
13564.257199,-5921.647536,-13619.789333,-92084.678860
13564.260429,-17616.901420,3552.988522,-72779.072310
13564.263660,3256.906145,6957.935855,-63739.145434
13564.266890,-20133.601622,-14656.077652,-86109.133975
13564.270120,-17912.983796,3108.864956,-73238.729609
13564.273350,13471.748144,20873.807564,-64505.240932
13564.276581,16876.695478,38046.585419,-58070.038748
13564.279811,13915.871710,17764.942608,-114607.886501
13564.283041,10807.006753,-5921.647536,-128397.605465
13564.286272,-2220.617826,12139.377449,-54392.780358
13564.289502,-3552.988522,18357.107362,-17466.977354
13564.292732,-3404.947333,148.041188,-71859.757712
13564.295963,-7550.100608,6069.688724,-77375.645298
13564.299193,7105.977043,8586.388927,-91471.802461
13564.302423,2220.617826,6957.935855,-94076.527154
13564.305653,888.247130,11991.336260,-86722.010374
13564.308884,10955.047942,14656.077652,-72932.291410
13564.312114,7254.018232,7254.018232,-74004.825107
13564.315344,-11103.089130,7402.059420,-74158.044206
13564.318575,-19541.436869,11547.212695,-47957.578175
13564.321805,3997.112087,13767.830521,-47957.578175
13564.325035,296.082377,-2516.700203,-106334.055122
13564.328266,-888.247130,-29016.072926,-141268.009831
13564.331496,-13619.789333,-13915.871710,-70634.004916
13564.334742,-14359.995275,20133.601622,-40603.061394
13564.337988,-11103.089130,23094.425390,-10112.460574
13564.341235,-7402.059420,-4589.276840,-75230.577904
13564.344481,-12139.377449,-12879.583391,-112309.600007
13564.347727,-9474.636058,1332.370696,-88100.982270
13564.350973,-2368.659014,9030.512492,-59908.667944
13564.354220,-148.041188,15396.283594,-55158.875856
13564.357466,296.082377,-5625.565159,-85189.819378
13564.360712,-23982.672521,-17024.736666,-95915.156350
13564.363958,1184.329507,10066.800811,-57150.724151
13564.367205,26647.413912,16136.489536,-62206.954438
13564.370451,-9178.553681,-2812.782580,-108172.684318
13564.373697,2664.741391,5329.482782,-119510.897688
13564.376943,-9030.512492,7550.100608,-64658.460031
13564.380190,-8734.430116,25611.125593,-19305.606550
13564.383436,1924.535449,5329.482782,-72166.195912
13564.386682,5329.482782,-7550.100608,-113535.352804
13564.389928,-4737.318029,8290.306550,-91931.459760
13564.393175,6513.812290,9622.677246,-86109.133975
13564.396421,2664.741391,14656.077652,-66956.746525
13564.399667,1332.370696,17764.942608,-65271.336430
13564.402913,8438.347739,11991.336260,-75996.673402
13564.406160,4589.276840,3849.070898,-87334.886772
13564.409406,-13471.748144,27387.619854,-62973.049936
13564.412652,-7254.018232,22946.384202,-50255.864669
13564.415898,9770.718434,6513.812290,-75843.454302
13564.419145,-444.123565,-21317.931130,-127171.852668
13564.422391,-17764.942608,-23094.425390,-100511.729338
13564.425637,-23390.507767,3256.906145,-16700.881856
13564.428883,-2812.782580,32124.937883,-15015.471761
13564.432130,-3997.112087,10214.842000,-49030.111872
13564.435376,1184.329507,-10362.883188,-127325.071768
13564.438634,-9770.718434,-4441.235652,-119664.116788
13564.441893,3701.029710,8734.430116,-68795.375720
13564.445153,-7254.018232,3404.947333,-50868.741067
13564.448412,-2812.782580,1332.370696,-61134.420740
13564.451672,-11695.253884,-5625.565159,-75230.577904
13564.454931,-30792.567187,-10807.006753,-68948.594820
13564.458191,-3552.988522,10807.006753,-49336.550071
13564.461450,36862.255912,13767.830521,-89479.954166
13564.464709,-1924.535449,-10362.883188,-135752.122246
13564.467969,-148.041188,-444.123565,-145098.487321
13564.471228,-3256.906145,9918.759623,-62206.954438
13564.474488,-4145.153275,27683.702231,4596.572988
13564.477747,-1924.535449,3108.864956,-61134.420740
13564.481006,-1924.535449,-6957.935855,-115527.201098
13564.484266,-2368.659014,9326.594869,-92084.678860
13564.487525,10362.883188,18949.272115,-64352.021832
13564.490785,2368.659014,14211.954086,-67263.184724
13564.494044,5625.565159,19245.354492,-72932.291410
13564.497304,7846.182985,13915.871710,-77069.207099
13564.500563,4737.318029,5625.565159,-84423.723880
13564.503822,-14359.995275,20725.766376,-63585.926334
13564.507082,3404.947333,21317.931130,-51481.617466
13564.510341,4293.194464,13027.624579,-50409.083768
13564.513601,-592.164754,-10510.924376,-118898.021290
13564.516871,-9770.718434,-29016.072926,-134986.026748
13564.520142,-15396.283594,-6365.771101,-58070.038748
13564.523413,-9474.636058,34641.638086,-3830.477490
13564.526684,444.123565,3997.112087,-24668.275036
13564.529955,-13915.871710,-5329.482782,-86262.353075
13564.533225,-9474.636058,-8734.430116,-117365.830294
13564.536496,4293.194464,-1332.370696,-93463.650756
13564.539767,-2220.617826,444.123565,-66956.746525
13564.543038,3108.864956,8290.306550,-64658.460031
13564.546309,1924.535449,-3256.906145,-75383.797003
13564.549579,-26499.372724,-19837.519246,-80286.808190
13564.552850,-15544.324782,3552.988522,-41062.718693
13564.556121,7550.100608,27239.578666,-46731.825378
13564.559392,29904.320057,11103.089130,-116752.953895
13564.562663,9918.759623,-2664.741391,-153065.880500
13564.565933,12731.542202,-8586.388927,-147703.212014
13564.569204,-444.123565,17024.736666,-40909.499593
13564.572475,-5033.400406,23390.507767,-11031.775171
13564.575746,4145.153275,-5033.400406,-74924.139704
13564.579017,-7550.100608,-6069.688724,-106334.055122
13564.582287,5625.565159,12139.377449,-84423.723880
13564.585558,-3701.029710,9770.718434,-75690.235202
13564.588829,3256.906145,18505.148550,-64505.240932
13564.592100,7550.100608,10510.924376,-75230.577904
13564.595370,9622.677246,10362.883188,-81512.560987
13564.598641,-3404.947333,6661.853478,-80593.246390
13564.601912,-16136.489536,-4737.318029,-73238.729609
13564.605183,-37454.420665,7994.224174,-30950.258119
13564.608454,1480.411884,14952.160028,-27119.780629
13564.611724,1480.411884,-15396.283594,-113535.352804
13564.614995,5477.523971,-15988.448347,-153219.099600
13564.618266,-4145.153275,10066.800811,-72779.072310
13564.621546,-14063.912898,14804.118840,-48110.797274
13564.624825,-15544.324782,11547.212695,-31409.915418
13564.628105,-14508.036463,2072.576638,-63585.926334
13564.631384,-10362.883188,-10658.965565,-91931.459760
13564.634664,-5477.523971,-5329.482782,-91778.240660
13564.637943,-7550.100608,3404.947333,-75690.235202
13564.641223,-7105.977043,5329.482782,-70327.566716
13564.644502,13767.830521,-10214.842000,-98979.538342
13564.647782,6217.729913,-12139.377449,-104035.768628
13564.651061,-23834.631332,-1036.288319,-57457.162350
13564.654341,-8734.430116,47669.262665,6894.859482
13564.657620,2812.782580,31236.690752,-53320.246661
13564.660900,1184.329507,6957.935855,-72319.415011
13564.664179,5477.523971,-16136.489536,-153219.099600
13564.667459,9918.759623,7105.977043,-102197.139433
13564.670738,-1036.288319,21169.889941,-45506.072581
13564.674018,5329.482782,16136.489536,-51481.617466
13564.677297,-1184.329507,5773.606348,-79367.493593
13564.680577,296.082377,6513.812290,-80899.684589
13564.683856,-740.205942,11547.212695,-78141.740796
13564.687136,3997.112087,10362.883188,-76303.111601
13564.690415,-18949.272115,19541.436869,-67416.403824
13564.693695,9178.553681,22650.301825,-70327.566716
13564.696974,13767.830521,3256.906145,-102197.139433
13564.700254,-3256.906145,-15100.201217,-130695.891959
13564.703533,-2664.741391,-28571.949361,-133453.835752
13564.706813,-9622.677246,-1332.370696,-43054.566988
13564.710092,-10362.883188,32124.937883,1532.190996
13564.713372,-6957.935855,-148.041188,-75843.454302
13564.716651,-5625.565159,-11103.089130,-115680.420198
13564.719931,-13767.830521,-7402.059420,-108938.779816
13564.723210,740.205942,6069.688724,-88254.201370
13564.726496,2812.782580,3404.947333,-66956.746525
13564.729783,-7698.141797,0.000000,-70174.347617
13564.733069,-444.123565,-444.123565,-84730.162079
13564.736356,-25315.043216,-16136.489536,-86109.133975
13564.739642,-27239.578666,-10807.006753,-65577.774629
13564.742929,-5921.647536,18801.230927,-22216.769442
13564.746215,17468.860231,43524.109390,-46885.044478
13564.749502,11695.253884,9622.677246,-146017.801919
13564.752788,17024.736666,-9770.718434,-153831.975998
13564.756075,-296.082377,-11991.336260,-124567.127975
13564.759361,1184.329507,27979.784608,-32022.791816
13564.762647,2960.823768,13323.706956,-29571.286223
13564.765934,-14804.118840,-3552.988522,-77069.207099
13564.769220,-1184.329507,3997.112087,-87641.324971
13564.772507,3552.988522,14656.077652,-72625.853210
13564.775793,9770.718434,19837.519246,-72166.195912
13564.779080,3701.029710,9326.594869,-87181.667672
13564.782366,5477.523971,23094.425390,-91931.459760
13564.785653,16580.613101,19097.313304,-93310.431656
13564.788939,6217.729913,-1776.494261,-93003.993457
13564.792226,-22354.219448,-19541.436869,-62973.049936
13564.795512,-33309.267390,-3552.988522,-13942.938064
13564.798798,-25907.207970,9474.636058,-459.657299
13564.802085,1184.329507,19689.478057,-45199.634382
13564.805371,-6365.771101,-15840.407159,-131768.425656
13564.808658,-5477.523971,-2516.700203,-113995.010102
13564.811944,-4293.194464,9178.553681,-60061.887043
13564.815231,-15248.242405,12731.542202,-41062.718693
13564.818517,-2368.659014,2960.823768,-52554.151163
13564.821804,-11695.253884,-5033.400406,-67109.965625
13564.825090,-11547.212695,-2072.576638,-80593.246390
13564.828377,-18949.272115,-12731.542202,-85802.695776
13564.831668,-15840.407159,7105.977043,-52554.151163
13564.834960,13027.624579,25907.207970,-35087.173808
13564.838252,22798.343014,36122.049970,-60674.763442
13564.841544,10807.006753,11251.130318,-138969.723337
13564.844836,10362.883188,-6513.812290,-132381.302054
13564.848128,296.082377,13471.748144,-31869.572717
13564.851420,-7402.059420,17172.777854,-18079.853753
13564.854712,-4737.318029,15840.407159,-41675.595091
13564.858004,-1628.453072,-2220.617826,-90552.487864
13564.861296,-5033.400406,2812.782580,-87947.763170
13564.864587,-2812.782580,19245.354492,-73698.386908
13564.867879,22650.301825,21762.054695,-75383.797003
13564.871171,592.164754,4293.194464,-94536.184453
13564.874463,-4441.235652,16284.530724,-99745.633840
13564.877755,17172.777854,21762.054695,-83504.409282
13564.881047,3997.112087,8142.265362,-70787.224015
13564.884339,-6661.853478,-19393.395680,-84423.723880
13564.887631,-28868.031738,-18061.024985,-58989.353346
13564.890923,-27387.619854,6809.894666,-23748.960438
13564.894215,-4441.235652,28423.908173,-16241.224558
13564.897506,-5033.400406,-3701.029710,-97753.785545
13564.900798,-148.041188,-5181.441594,-127325.071768
13564.904090,-6069.688724,-148.041188,-92084.678860
13564.907382,-13323.706956,12583.501014,-46731.825378
13564.910674,-7994.224174,9622.677246,-33708.201912
13564.913966,-10510.924376,2220.617826,-41675.595091
13564.917258,-11843.295072,6957.935855,-67569.622924
13564.920550,-5773.606348,-20725.766376,-108479.122517
13564.923842,-13323.706956,-4589.276840,-80440.027290
13564.927133,-3552.988522,19097.313304,-31103.477219
13564.930425,15544.324782,41747.615129,-45506.072581
13564.933717,16136.489536,27683.702231,-67416.403824
13564.936975,19393.395680,-10658.965565,-148622.526612
13564.940233,2960.823768,-7846.182985,-113688.571903
13564.943491,7994.224174,22946.384202,-39836.965896
13564.946750,-6365.771101,17912.983796,-38304.774900
13564.950008,-3701.029710,-1924.535449,-54545.999458
13564.953266,2516.700203,-888.247130,-87947.763170
13564.956524,148.041188,4145.153275,-88254.201370
13564.959782,-6661.853478,18209.066173,-62206.954438
13564.963040,4737.318029,17764.942608,-64811.679131
13564.966298,-7698.141797,13027.624579,-86109.133975
13564.969556,-14359.995275,8882.471304,-75230.577904
13564.972814,10510.924376,12139.377449,-77069.207099
13564.976072,-6957.935855,444.123565,-93310.431656
13564.979330,2960.823768,-20725.766376,-112309.600007
13564.982588,-9178.553681,-7254.018232,-67722.842023
13564.985846,-13175.665768,29460.196492,-20991.016645
13564.989104,-10066.800811,13175.665768,-33095.325514
13564.992362,-13915.871710,-4145.153275,-74464.482406
13564.995620,-16580.613101,-4293.194464,-97907.004644
13564.998879,7846.182985,-2812.782580,-94689.403553
13565.002137,-2516.700203,444.123565,-79214.274493
13565.005395,-12287.418637,-3404.947333,-75690.235202
13565.008653,-10955.047942,2516.700203,-67876.061123
13565.011911,7105.977043,4293.194464,-73851.606007
13565.015169,27535.661042,5033.400406,-87028.448573
13565.018427,-15248.242405,-10955.047942,-99745.633840
13565.021685,-13027.624579,27831.743419,-34321.078310
13565.024943,-5773.606348,32421.020260,-14249.376263
13565.028201,2664.741391,6661.853478,-85496.257577
13565.031459,-1776.494261,-11991.336260,-110930.628110
13565.034717,2072.576638,-1480.411884,-125792.880772
13565.037975,10066.800811,8142.265362,-80440.027290
13565.041243,592.164754,18653.189738,-51328.398366
13565.044511,7254.018232,19689.478057,-58682.915147
13565.047779,17172.777854,14804.118840,-70327.566716
13565.051046,-11695.253884,-148.041188,-82278.656485
13565.054314,2072.576638,17172.777854,-69561.471218
13565.057582,14359.995275,15100.201217,-68948.594820
13565.060850,-13175.665768,1184.329507,-85496.257577
13565.064118,-34345.555709,-11251.130318,-85955.914876
13565.067385,-22650.301825,-16580.613101,-64352.021832
13565.070653,-21910.095883,9770.718434,-20071.702048
13565.073921,5329.482782,16728.654289,-73391.948708
13565.077189,5625.565159,-9622.677246,-131768.425656
13565.080457,-15988.448347,5033.400406,-84423.723880
13565.083724,-1036.288319,10955.047942,-49796.207370
13565.086992,3404.947333,9918.759623,-56537.847752
13565.090260,-1036.288319,4589.276840,-51481.617466
13565.093528,-17024.736666,-8586.388927,-75077.358804
13565.096795,-14211.954086,1924.535449,-74770.920605
13565.100063,-13471.748144,-12435.459826,-80133.589091
13565.103331,-13471.748144,-5921.647536,-69255.033019
13565.106599,-13175.665768,5625.565159,-60061.887043
13565.109867,1036.288319,47077.097911,-37998.336701
13565.113134,10214.842000,23686.590144,-94076.527154
13565.116402,17172.777854,-8290.306550,-143566.296325
13565.119670,9326.594869,-444.123565,-87947.763170
13565.122938,6661.853478,18801.230927,-27426.218828
13565.126206,-148.041188,23242.466579,-38917.651298
13565.129473,1628.453072,3404.947333,-70327.566716
13565.132741,7846.182985,-2516.700203,-93923.308055
13565.136009,-3108.864956,7402.059420,-79367.493593
13565.139277,-7698.141797,15100.201217,-60521.544342
13565.142545,10066.800811,17468.860231,-64505.240932
13565.145782,-1480.411884,6957.935855,-80133.589091
13565.149020,-19245.354492,3701.029710,-81818.999186
13565.152257,-11547.212695,12731.542202,-62973.049936
13565.155495,1332.370696,10214.842000,-56844.285952
13565.158733,5033.400406,-19393.395680,-117059.392094
13565.161970,7994.224174,-9178.553681,-132687.740254
13565.165208,740.205942,11695.253884,-96528.032748
13565.168446,-16876.695478,11991.336260,-31103.477219
13565.171683,-18653.189738,9326.594869,-43820.662486
13565.174921,-13027.624579,2516.700203,-81052.903688
13565.178159,-1184.329507,-9622.677246,-100664.948437
13565.181396,-21465.972318,-12287.418637,-97294.128246
13565.184634,-7550.100608,7402.059420,-81359.341888
13565.187871,-7254.018232,-9622.677246,-81052.903688
13565.191109,-19541.436869,-296.082377,-68029.280222
13565.194347,8290.306550,19245.354492,-56844.285952
13565.197584,30644.525999,16284.530724,-83351.190182
13565.200822,5033.400406,23094.425390,-99592.414740
13565.204060,11547.212695,-3849.070898,-124567.127975
13565.207297,7994.224174,740.205942,-66343.870127
13565.210535,-5625.565159,15396.283594,-28805.190725
13565.213773,-4737.318029,4737.318029,-64964.898230
13565.217010,-2220.617826,-5625.565159,-94842.622652
13565.220248,148.041188,3849.070898,-88254.201370
13565.223486,3997.112087,12139.377449,-74464.482406
13565.226723,-2664.741391,14359.995275,-62360.173537
13565.229961,4589.276840,23390.507767,-66650.308326
13565.233198,444.123565,3108.864956,-92391.117059
13565.236436,-14952.160028,6217.729913,-73698.386908
13565.239674,-19541.436869,12435.459826,-61440.858940
13565.242911,1628.453072,10214.842000,-45199.634382
13565.246149,-1332.370696,-18357.107362,-101431.043935
13565.249400,296.082377,-9770.718434,-120736.650485
13565.252650,-2368.659014,17320.819043,-65730.993728
13565.255901,-12731.542202,444.123565,-50868.741067
13565.259152,-25167.002028,12731.542202,-38151.555800
13565.262402,-3256.906145,5329.482782,-70480.785816
13565.265653,-6069.688724,-7254.018232,-89173.515967
13565.268904,-13323.706956,-5625.565159,-97753.785545
13565.272154,12731.542202,-296.082377,-85802.695776
13565.275405,-1628.453072,-15988.448347,-90552.487864
13565.278656,-24870.919651,-1184.329507,-64811.679131
13565.281906,148.041188,16728.654289,-41062.718693
13565.285157,19393.395680,36418.132346,-56844.285952
13565.288408,12731.542202,17468.860231,-122575.279680
13565.291658,7402.059420,-11695.253884,-130389.453760
13565.294909,1480.411884,-6513.812290,-104801.864126
13565.298160,6513.812290,25018.960840,-29571.286223
13565.301410,-1036.288319,11103.089130,-46885.044478
13565.304661,-10658.965565,-444.123565,-89020.296868
13565.307912,5329.482782,1480.411884,-93463.650756
13565.311162,3997.112087,4293.194464,-86415.572174
13565.314413,-13175.665768,8438.347739,-67109.965625
13565.317664,11695.253884,27535.661042,-58836.134246
13565.320914,8142.265362,6957.935855,-95455.499051
13565.324165,-14656.077652,-592.164754,-90246.049664
13565.327427,-16284.530724,14804.118840,-51941.274764
13565.330689,-6957.935855,2812.782580,-26200.466032
13565.333951,-9770.718434,1036.288319,-45046.415282
13565.337213,6957.935855,-5625.565159,-115527.201098
13565.340476,5181.441594,148.041188,-117825.487592
13565.343738,-14508.036463,13619.789333,-51481.617466
13565.347000,-5033.400406,12731.542202,-50102.645569
13565.350262,-3256.906145,7402.059420,-65577.774629
13565.353524,-5033.400406,-1036.288319,-85036.600278
13565.356786,-18801.230927,-15248.242405,-95149.060852
13565.360048,-13767.830521,4885.359217,-62819.830836
13565.363310,3997.112087,-5033.400406,-63279.488135
13565.366572,-10955.047942,-8734.430116,-83044.751983
13565.369834,-16580.613101,-6661.853478,-98979.538342
13565.373097,-2664.741391,33753.390955,-46118.948980
13565.376359,-1480.411884,35974.008781,-33095.325514
13565.379621,11695.253884,5329.482782,-100358.510238
13565.382883,13027.624579,-8290.306550,-131308.768357
13565.386145,8142.265362,11103.089130,-108632.341616
13565.389407,740.205942,11399.171507,-68948.594820
13565.392669,6217.729913,17764.942608,-56231.409553
13565.395931,2072.576638,9918.759623,-72166.195912
13565.399193,1776.494261,10362.883188,-84883.381178
13565.402455,-5329.482782,5329.482782,-76303.111601
13565.405718,-5329.482782,23242.466579,-66343.870127
13565.408980,4589.276840,22058.137072,-63585.926334
13565.412242,11843.295072,2812.782580,-104648.645027
13565.415504,-6513.812290,-28571.949361,-127478.290867
13565.418766,-24278.754898,-14952.160028,-61134.420740
13565.422028,-16284.530724,11547.212695,3217.601092
13565.425290,-6217.729913,18801.230927,-46731.825378
13565.428552,-6217.729913,1628.453072,-75690.235202
13565.431800,-3256.906145,-9030.512492,-112156.380907
13565.435072,-10807.006753,4145.153275,-92391.117059
13565.438343,-888.247130,11547.212695,-65577.774629
13565.441614,-740.205942,5477.523971,-57150.724151
13565.444885,-13323.706956,-9474.636058,-72625.853210
13565.448157,-23982.672521,-9474.636058,-87028.448573
13565.451428,-9326.594869,3701.029710,-62360.173537
13565.454699,15988.448347,23242.466579,-69867.909418
13565.457970,17172.777854,6957.935855,-112616.038206
13565.461242,4441.235652,2960.823768,-110470.970812
13565.464513,-10955.047942,-3849.070898,-100818.167537
13565.467784,-6217.729913,21317.931130,-12410.747068
13565.471055,592.164754,13767.830521,-33401.763713
13565.474327,0.000000,-6513.812290,-103882.549529
13565.477598,1776.494261,-2072.576638,-109858.094413
13565.480869,-1184.329507,11251.130318,-66803.527426
13565.484140,5329.482782,17320.819043,-63892.364533
13565.487412,4885.359217,17468.860231,-51634.836565
13565.490683,9474.636058,18949.272115,-71093.662214
13565.493954,-1924.535449,-1184.329507,-97140.909146
13565.497225,-18357.107362,8586.388927,-62973.049936
13565.500497,-8142.265362,18801.230927,-38611.213099
13565.503768,-740.205942,9918.759623,-31409.915418
13565.507039,-3404.947333,-14063.912898,-93157.212557
13565.510310,-740.205942,-15544.324782,-139429.380636
13565.513582,-740.205942,13027.624579,-85189.819378
13565.516853,-10066.800811,11399.171507,-29724.505322
13565.520124,-20577.725188,10214.842000,-41982.033290
13565.523395,-15544.324782,3552.988522,-61594.078039
13565.526666,-10955.047942,-5033.400406,-74770.920605
13565.529938,-19541.436869,-11251.130318,-80899.684589
13565.533209,-3108.864956,5773.606348,-78907.836294
13565.536488,20725.766376,-6661.853478,-97294.128246
13565.539766,24130.713709,-5921.647536,-121196.307784
13565.543045,-14952.160028,-5921.647536,-117059.392094
13565.546323,-2220.617826,34641.638086,-17620.196454
13565.549602,-11843.295072,41155.450375,10112.460574
13565.552881,3849.070898,8290.306550,-91012.145162
13565.556159,592.164754,-23094.425390,-166242.723066
13565.559438,-1184.329507,-6217.729913,-133300.616652
13565.562717,1776.494261,12287.418637,-70021.128517
13565.565995,3849.070898,24574.837274,-42594.909689
13565.569274,9918.759623,18949.272115,-75077.358804
13565.572553,7254.018232,-296.082377,-100664.948437
13565.575831,-1184.329507,7105.977043,-83657.628382
13565.579110,-12287.418637,3701.029710,-76303.111601
13565.582388,-16580.613101,19245.354492,-32176.010916
13565.585667,5181.441594,15840.407159,-46272.168079
13565.588946,-4737.318029,-14508.036463,-123647.813377
13565.592224,-2516.700203,-31976.896694,-142800.200827
13565.595503,-444.123565,-16876.695478,-129776.577361
13565.598782,-11695.253884,24870.919651,-43667.443386
13565.602060,4441.235652,13619.789333,-34627.516510
13565.605339,-12139.377449,-3552.988522,-78601.398095
13565.608617,-12731.542202,1332.370696,-97447.347346
13565.611896,-2812.782580,0.000000,-82278.656485
13565.615175,-17616.901420,-6661.853478,-68335.718422
13565.618453,-5329.482782,6661.853478,-54852.437657
13565.621732,7254.018232,-10807.006753,-84270.504780
13565.625011,-14063.912898,-10807.006753,-92391.117059
13565.628289,-5329.482782,11251.130318,-53013.808462
13565.631568,7550.100608,48113.386230,-20378.140247
13565.634847,-6365.771101,38194.626607,-23289.303139
13565.638125,14952.160028,7254.018232,-109245.218015
13565.641371,5033.400406,-16432.571912,-148316.088413
13565.644617,8734.430116,14952.160028,-73391.948708
13565.647864,9770.718434,18801.230927,-43207.786087
13565.651110,-5625.565159,3997.112087,-68335.718422
13565.654356,3108.864956,10807.006753,-84270.504780
13565.657602,2220.617826,2368.659014,-94689.403553
13565.660848,-4441.235652,7105.977043,-57763.600549
13565.664094,-19393.395680,18653.189738,-46118.948980
13565.667341,9622.677246,20281.642811,-68182.499322
13565.670587,10066.800811,18357.107362,-68029.280222
13565.673833,-2516.700203,-16136.489536,-138203.627839
13565.677079,-1036.288319,-32272.979071,-140501.914333
13565.680325,-9770.718434,-148.041188,-49949.426470
13565.683571,-7254.018232,34937.720462,4903.011187
13565.686818,-4145.153275,5921.647536,-68795.375720
13565.690064,-12583.501014,-8290.306550,-78754.617194
13565.693310,-13027.624579,-3701.029710,-94382.965354
13565.696556,-8290.306550,-1184.329507,-79214.274493
13565.699802,-14508.036463,3552.988522,-62053.735338
13565.703048,5921.647536,7254.018232,-72625.853210
13565.706295,9326.594869,-13915.871710,-99132.757441
13565.709541,2220.617826,-9622.677246,-110317.751712
13565.712787,-12879.583391,1776.494261,-79367.493593
13565.716033,3849.070898,45448.644839,-5669.106685
13565.719279,-7254.018232,37454.420665,-39836.965896
13565.722525,16136.489536,-5033.400406,-142034.105329
13565.725772,4737.318029,-21465.972318,-153219.099600
13565.729018,-296.082377,4441.235652,-102350.358533
13565.732264,-1332.370696,17468.860231,-45965.729880
13565.735510,5033.400406,16284.530724,-47957.578175
13565.738756,4589.276840,11695.253884,-85343.038477
13565.742002,3552.988522,592.164754,-108479.122517
13565.745222,10362.883188,7550.100608,-89633.173266
13565.748441,-6661.853478,4441.235652,-70940.443115
13565.751660,-26647.413912,17764.942608,-43207.786087
13565.754880,7550.100608,19689.478057,-55465.314055
13565.758099,-1332.370696,-7846.182985,-117212.611194
13565.761318,-1924.535449,-33605.349767,-144638.830022
13565.764537,148.041188,-17468.860231,-137284.313242
13565.767757,-13027.624579,23538.548956,-41215.937792
13565.770976,12287.418637,15100.201217,-23595.741338
13565.774195,-20281.642811,-4293.194464,-82125.437386
13565.777415,-11251.130318,-2220.617826,-111083.847210
13565.780634,-9030.512492,-13619.789333,-105874.397824
13565.783853,-13027.624579,-8142.265362,-74617.701505
13565.787073,-8438.347739,1184.329507,-53167.027561
13565.790292,12435.459826,2960.823768,-74770.920605
13565.793511,6957.935855,-5625.565159,-107713.027019
13565.796730,-14508.036463,-3404.947333,-94995.841752
13565.799950,6661.853478,16580.613101,-75383.797003
13565.803169,-9326.594869,32865.143825,-1838.629195
13565.806388,-2812.782580,23242.466579,-33095.325514
13565.809608,3256.906145,-18653.189738,-131461.987457
13565.812827,-1036.288319,3701.029710,-111696.723608
13565.816046,5477.523971,13767.830521,-61900.516238
13565.819265,2812.782580,21465.972318,-52554.151163
13565.822485,12139.377449,30644.525999,-61440.858940
13565.825704,12583.501014,-5329.482782,-99898.852939
13565.828923,3108.864956,8438.347739,-86875.229473
13565.832143,-296.082377,9770.718434,-70480.785816
13565.835362,-25463.084405,3701.029710,-44433.538884
13565.838581,-47373.180288,-148.041188,-37691.898502
13565.841801,-12583.501014,2368.659014,-30184.162621
13565.845020,-3701.029710,-10807.006753,-83810.847481
13565.848255,5033.400406,-10955.047942,-140961.571632
13565.851490,2960.823768,9178.553681,-106180.836023
13565.854725,5625.565159,4885.359217,-86415.572174
13565.857960,2368.659014,14804.118840,-42441.690589
13565.861195,-11695.253884,10955.047942,-59755.448844
13565.864430,-9770.718434,-10362.883188,-87334.886772
13565.867665,-11991.336260,-10214.842000,-86262.353075
13565.870900,-19097.313304,-7994.224174,-77222.426198
13565.874135,-22946.384202,3108.864956,-51328.398366
13565.877371,-7254.018232,25611.125593,-46425.387179
13565.880606,33901.432144,21317.931130,-94995.841752
13565.883841,23094.425390,148.041188,-153219.099600
13565.887076,-9622.677246,148.041188,-96528.032748
13565.890311,-5921.647536,26499.372724,9346.365076
13565.893546,9178.553681,25167.002028,-4290.134789
13565.896781,-6513.812290,11695.253884,-47957.578175
13565.900016,-5625.565159,-9474.636058,-107866.246118
13565.903251,3404.947333,5625.565159,-96681.251848
13565.906486,592.164754,25611.125593,-60827.982541
13565.909721,11843.295072,21614.013506,-49949.426470
13565.912956,-5329.482782,16580.613101,-63432.707234
13565.916191,-148.041188,14804.118840,-89173.515967
13565.919426,19837.519246,3552.988522,-103116.454031
13565.922661,-6217.729913,-11991.336260,-96068.375449
13565.925897,-26647.413912,-14952.160028,-62360.173537
13565.929132,-5625.565159,-7402.059420,-59755.448844
13565.932367,-13619.789333,25018.960840,-22523.207641
13565.935602,-14656.077652,6661.853478,-72166.195912
13565.938837,-9770.718434,-15988.448347,-109398.437114
13565.942072,-9918.759623,10955.047942,-79827.150892
13565.945307,-6217.729913,7846.182985,-63126.269035
13565.948542,-4737.318029,-2220.617826,-64658.460031
13565.951790,-3404.947333,-3552.988522,-83504.409282
13565.955039,10362.883188,740.205942,-88254.201370
13565.958287,16136.489536,-1480.411884,-89326.735067
13565.961535,-29756.278868,2516.700203,-70634.004916
13565.964783,-2368.659014,23982.672521,-56997.505051
13565.968032,-5477.523971,27979.784608,-6741.640382
13565.971280,-13027.624579,22502.260637,-42594.909689
13565.974528,6069.688724,-17024.736666,-147243.554716
13565.977777,5921.647536,-592.164754,-125180.004373
13565.981025,2812.782580,20429.683999,-56691.066852
13565.984273,5329.482782,25315.043216,-43667.443386
13565.987522,17912.983796,26647.413912,-56078.190454
13565.990770,1628.453072,-4885.359217,-101890.701234
13565.994018,1480.411884,13767.830521,-89633.173266
13565.997266,16728.654289,17616.901420,-70021.128517
13566.000515,-18061.024985,2812.782580,-63432.707234
13566.003763,-22206.178260,-14359.995275,-75383.797003
13566.007011,-18505.148550,-15100.201217,-52860.589362
13566.010260,-21910.095883,-1480.411884,-34933.954709
13566.013508,2664.741391,4145.153275,-95608.718150
13566.016756,-2516.700203,888.247130,-120583.431385
13566.020004,-8882.471304,13175.665768,-65118.117330
13566.023253,-4885.359217,11399.171507,-65271.336430
13566.026501,-12287.418637,4737.318029,-59755.448844
13566.029749,-13915.871710,-3108.864956,-62513.392637
13566.032998,-2516.700203,-2368.659014,-70940.443115
13566.036246,-6069.688724,-14952.160028,-83504.409282
13566.039494,-11103.089130,-2516.700203,-77988.521696
13566.042743,-11991.336260,7994.224174,-60674.763442
13566.045991,2664.741391,41451.532752,-29111.628924
13566.049239,7105.977043,28571.949361,-80133.589091
13566.052487,17912.983796,-9178.553681,-145558.144620
13566.055747,-3849.070898,-4737.318029,-106180.836023
13566.059007,-2368.659014,17912.983796,-77988.521696
13566.062267,11695.253884,20873.807564,-43361.005187
13566.065526,2220.617826,8734.430116,-69101.813920
13566.068786,4737.318029,12139.377449,-98979.538342
13566.072046,1924.535449,-6957.935855,-98366.661943
13566.075305,3701.029710,21021.848753,-44739.977083
13566.078565,5181.441594,15840.407159,-62053.735338
13566.081825,-16728.654289,-6069.688724,-66343.870127
13566.085084,-39378.956114,5477.523971,-59908.667944
13566.088344,5773.606348,3552.988522,-55771.752254
13566.091604,592.164754,-12139.377449,-96374.813648
13566.094864,296.082377,444.123565,-107559.807919
13566.098123,2368.659014,4737.318029,-111696.723608
13566.101383,-1776.494261,12731.542202,-59295.791545
13566.104643,1480.411884,14952.160028,-50409.083768
13566.107902,-6513.812290,5477.523971,-76303.111601
13566.111162,-22946.384202,-18061.024985,-94995.841752
13566.114422,-13175.665768,-3552.988522,-76762.768900
13566.117682,7402.059420,-14804.118840,-78294.959896
13566.120941,-21021.848753,-3552.988522,-64198.802732
13566.124201,-18209.066173,14804.118840,-51328.398366
13566.127461,21910.095883,36714.214723,-60521.544342
13566.130720,15840.407159,19689.478057,-111543.504509
13566.133980,14359.995275,1036.288319,-137590.751441
13566.137240,7698.141797,-12731.542202,-136211.779544
13566.140500,13619.789333,19837.519246,-43361.005187
13566.143759,1480.411884,16876.695478,-24515.055936
13566.147019,-5477.523971,-3256.906145,-76303.111601
13566.150279,-3256.906145,11843.295072,-92544.336158
13566.153538,-5477.523971,-6069.688724,-86722.010374
