#time,accel_x,accel_y,accel_z
10822.897423,-17320.819043,16876.695478,-52094.493864
10822.900597,-7254.018232,2812.782580,-66343.870127
10822.903805,1184.329507,5181.441594,-83810.847481
10822.907012,-3997.112087,-3256.906145,-96681.251848
10822.910219,3552.988522,1036.288319,-93616.869856
10822.913426,-3108.864956,-1036.288319,-88254.201370
10822.916633,-10510.924376,7550.100608,-65271.336430
10822.919840,-5625.565159,6069.688724,-56997.505051
10822.923047,-3997.112087,-1776.494261,-67109.965625
10822.926254,-7550.100608,3997.112087,-84423.723880
10822.929462,4737.318029,4145.153275,-90399.268764
10822.932669,-8586.388927,-2960.823768,-92391.117059
10822.935876,-14063.912898,7550.100608,-69561.471218
10822.939083,-6809.894666,4293.194464,-59449.010645
10822.942290,296.082377,2812.782580,-65424.555529
10822.945497,-444.123565,444.123565,-86262.353075
10822.948704,-9178.553681,-1924.535449,-92237.897959
10822.951911,-6217.729913,1332.370696,-91012.145162
10822.955118,-7105.977043,3552.988522,-68948.594820
10822.958326,11103.089130,12879.583391,-61440.858940
10822.961533,-7550.100608,2220.617826,-85802.695776
10822.964740,-10214.842000,7254.018232,-76915.987999
10822.967947,15396.283594,-2516.700203,-97907.004644
10822.971154,-3108.864956,-3552.988522,-89326.735067
10822.974361,-29608.237680,-2960.823768,-59449.010645
10822.977568,-18061.024985,17468.860231,-11031.775171
10822.980775,-9326.594869,43672.150578,-18999.168350
10822.983982,11103.089130,32569.061448,-36619.364804
10822.987190,17320.819043,-23538.548956,-178347.031934
10822.990397,-592.164754,-6957.935855,-169919.981456
10822.993604,7105.977043,4145.153275,-49489.769171
10822.996811,-4145.153275,30348.443622,18079.853753
10823.000018,-10807.006753,7402.059420,-45046.415282
10823.003225,-4589.276840,4293.194464,-94689.403553
10823.006424,-11547.212695,-5033.400406,-87488.105872
10823.009623,-9178.553681,888.247130,-82738.313784
10823.012823,4441.235652,14359.995275,-81665.780087
10823.016022,12731.542202,14656.077652,-100358.510238
10823.019221,-4885.359217,6957.935855,-98979.538342
10823.022420,5773.606348,-1628.453072,-79673.931792
10823.025619,3849.070898,7550.100608,-74617.701505
10823.028818,1184.329507,16284.530724,-48876.892772
10823.032017,11547.212695,5181.441594,-69867.909418
10823.035216,-11991.336260,-592.164754,-94536.184453
10823.038416,740.205942,11547.212695,-77222.426198
10823.041615,-1036.288319,6365.771101,-62819.830836
10823.044814,-8586.388927,13175.665768,-43820.662486
10823.048013,8734.430116,10807.006753,-71553.319513
10823.051212,3849.070898,-7698.141797,-106487.274222
10823.054411,888.247130,7254.018232,-92850.774358
10823.057610,-4145.153275,5921.647536,-99745.633840
10823.060809,-8882.471304,17912.983796,-50868.741067
10823.064009,8586.388927,16284.530724,-50562.302868
10823.067208,-1776.494261,-2220.617826,-80133.589091
10823.070407,-16432.571912,-8586.388927,-95302.279951
10823.073606,-8438.347739,15544.324782,-56997.505051
10823.076805,20429.683999,34641.638086,-58529.696047
10823.080004,26499.372724,7698.141797,-99592.414740
10823.083203,1628.453072,-25167.002028,-179266.346532
10823.086402,-6365.771101,-15396.283594,-101737.482134
10823.089602,-15100.201217,18209.066173,18845.949251
10823.092801,-18653.189738,38194.626607,7507.735880
10823.096000,1332.370696,-17468.860231,-120889.869584
10823.099199,-1184.329507,-6661.853478,-115373.981999
10823.102398,-5329.482782,-10214.842000,-138203.627839
10823.105597,3552.988522,2516.700203,-92237.897959
10823.108790,1776.494261,17468.860231,-57457.162350
10823.111983,-1776.494261,8586.388927,-57763.600549
10823.115176,-6217.729913,1332.370696,-65271.336430
10823.118369,-7402.059420,296.082377,-63432.707234
10823.121562,-14952.160028,11843.295072,-60061.887043
10823.124755,-3849.070898,9474.636058,-74158.044206
10823.127948,2960.823768,2812.782580,-91165.364262
10823.131141,-3701.029710,-2960.823768,-97600.566445
10823.134334,7550.100608,-1628.453072,-108172.684318
10823.137527,-6957.935855,2812.782580,-90858.926063
10823.140720,-11991.336260,6809.894666,-58070.038748
10823.143913,-3404.947333,6661.853478,-53933.123059
10823.147106,-16876.695478,-1924.535449,-66803.527426
10823.150299,-9474.636058,9918.759623,-51941.274764
10823.153492,-7402.059420,-4441.235652,-71706.538613
10823.156685,-16432.571912,2664.741391,-73085.510509
10823.159878,15248.242405,3849.070898,-90705.706963
10823.163071,12139.377449,-7105.977043,-102963.234931
10823.166264,-33161.226202,-3701.029710,-77222.426198
10823.169457,-27831.743419,-13323.706956,-73698.386908
10823.172650,-21465.972318,25907.207970,27426.218828
10823.175843,-3849.070898,41303.491564,1378.971896
10823.179036,15840.407159,-14211.954086,-149541.841210
10823.182229,3701.029710,-13619.789333,-183862.919520
10823.185422,10510.924376,7402.059420,-79367.493593
10823.188615,14211.954086,27535.661042,-62666.611736
10823.191808,9622.677246,13915.871710,-32022.791816
10823.195001,-11991.336260,6069.688724,-51634.836565
10823.198194,-7254.018232,296.082377,-70174.347617
10823.201387,-7698.141797,1184.329507,-75077.358804
10823.204580,-740.205942,13175.665768,-83964.066581
10823.207773,9178.553681,5921.647536,-81359.341888
10823.210961,444.123565,5329.482782,-101124.605736
10823.214149,-1480.411884,2960.823768,-96987.690047
10823.217338,-1036.288319,5329.482782,-77835.302597
10823.220526,-740.205942,15396.283594,-58682.915147
10823.223715,8586.388927,19689.478057,-52707.370262
10823.226903,0.000000,9178.553681,-74311.263306
10823.230091,-13027.624579,3552.988522,-90246.049664
10823.233280,-1036.288319,-2072.576638,-81359.341888
10823.236468,444.123565,10955.047942,-58682.915147
10823.239657,-2368.659014,17172.777854,-52860.589362
10823.242845,-1036.288319,23982.672521,-59142.572446
10823.246034,7402.059420,2368.659014,-97140.909146
10823.249222,-10362.883188,-1628.453072,-104342.206828
10823.252410,19245.354492,12583.501014,-73085.510509
10823.255599,5329.482782,5477.523971,-62819.830836
10823.258787,-18357.107362,-444.123565,-75537.016103
10823.261976,-8290.306550,-17320.819043,-83044.751983
10823.265164,-44708.438897,13175.665768,-18079.853753
10823.268352,14359.995275,42339.779882,-5209.449386
10823.271541,16728.654289,-10658.965565,-140501.914333
10823.274729,0.000000,-22798.343014,-196733.323886
10823.277918,1184.329507,-15248.242405,-178959.908333
10823.281106,-3849.070898,15248.242405,-54392.780358
10823.284295,-2368.659014,18505.148550,-612.876398
10823.287483,-12139.377449,8438.347739,-43054.566988
10823.290671,-11399.171507,-6069.688724,-104188.987728
10823.293860,-8734.430116,-9326.594869,-108479.122517
10823.297048,-8438.347739,-2072.576638,-89326.735067
10823.300237,740.205942,10658.965565,-70174.347617
10823.303425,296.082377,8882.471304,-83197.971083
10823.306613,-296.082377,6809.894666,-91012.145162
10823.309802,1036.288319,-4293.194464,-86568.791274
10823.312981,-13175.665768,11547.212695,-57457.162350
10823.316166,-592.164754,9474.636058,-51788.055665
10823.319351,-2960.823768,3997.112087,-56997.505051
10823.322536,-19985.560434,0.000000,-81665.780087
10823.325722,4441.235652,-2368.659014,-91471.802461
10823.328907,-2516.700203,4737.318029,-77375.645298
10823.332092,1184.329507,5921.647536,-70634.004916
10823.335277,-7846.182985,7846.182985,-77528.864398
10823.338462,2960.823768,4589.276840,-82125.437386
10823.341648,-17468.860231,-7550.100608,-78754.617194
10823.344833,-7550.100608,13471.748144,-54086.342159
10823.348018,13619.789333,10807.006753,-77988.521696
10823.351203,24722.878463,28275.866984,-84883.381178
10823.354388,38046.585419,-7254.018232,-151993.346803
10823.357574,-31680.814318,-20725.766376,-120583.431385
10823.360759,-16136.489536,29904.320057,18539.511052
10823.363944,-1628.453072,30200.402434,14249.376263
10823.367129,-8290.306550,-5625.565159,-106640.493322
10823.370314,1036.288319,-2812.782580,-123341.375178
10823.373500,5477.523971,-4885.359217,-145558.144620
10823.376685,4737.318029,22946.384202,-87947.763170
10823.379870,18505.148550,18653.189738,-68182.499322
10823.383055,-444.123565,4737.318029,-60215.106143
10823.386240,-9918.759623,740.205942,-61900.516238
10823.389425,-9622.677246,5033.400406,-57150.724151
10823.392611,3108.864956,15692.365970,-46272.168079
10823.395796,-2960.823768,5181.441594,-69408.252119
10823.398981,-2664.741391,2812.782580,-94842.622652
10823.402166,6957.935855,4293.194464,-106027.616923
10823.405351,1480.411884,11399.171507,-79673.931792
10823.408537,592.164754,9326.594869,-74158.044206
10823.411722,-3552.988522,11251.130318,-62360.173537
10823.414905,-3701.029710,16580.613101,-60061.887043
10823.418088,1036.288319,5033.400406,-79673.931792
10823.421271,-5625.565159,2516.700203,-82585.094684
10823.424454,-18801.230927,2368.659014,-74004.825107
10823.427638,10066.800811,17172.777854,-56691.066852
10823.430821,-4145.153275,888.247130,-78754.617194
10823.434004,-14211.954086,8734.430116,-87947.763170
10823.437187,12879.583391,10214.842000,-79367.493593
10823.440370,6365.771101,10807.006753,-80899.684589
10823.443553,7254.018232,-148.041188,-107559.807919
10823.446736,-8142.265362,-25907.207970,-110317.751712
10823.449919,-46484.933158,15396.283594,-3983.696590
10823.453103,-8290.306550,39675.038491,21297.454844
10823.456286,4293.194464,-888.247130,-97447.347346
10823.459469,8142.265362,-24722.878463,-186927.301512
10823.462652,-7105.977043,-20577.725188,-166089.503966
10823.465835,-6513.812290,14063.912898,-71093.662214
10823.469018,5477.523971,19837.519246,-28192.314326
10823.472201,-8586.388927,3404.947333,-48417.235474
10823.475384,-4145.153275,-8586.388927,-85955.914876
10823.478568,-11843.295072,-1924.535449,-82585.094684
10823.481751,-10807.006753,8142.265362,-67109.965625
10823.484934,-2664.741391,3849.070898,-62819.830836
10823.488117,-9474.636058,9326.594869,-70174.347617
10823.491300,-5773.606348,-2220.617826,-92544.336158
10823.494483,-11991.336260,-1628.453072,-92084.678860
10823.497666,-12583.501014,-3256.906145,-80593.246390
10823.500849,-1332.370696,6661.853478,-62360.173537
10823.504033,-1036.288319,9326.594869,-70634.004916
10823.507216,-11399.171507,-3404.947333,-91931.459760
10823.510399,-296.082377,5033.400406,-82585.094684
10823.513582,-9326.594869,4885.359217,-72472.634111
10823.516802,-10066.800811,10510.924376,-59602.229744
10823.520021,7105.977043,-6809.894666,-72166.195912
10823.523241,-24426.796086,-6513.812290,-70480.785816
10823.526461,-13915.871710,14508.036463,-61594.078039
10823.529681,20873.807564,34789.679274,-73238.729609
10823.532900,42635.862259,36418.132346,-73391.948708
10823.536120,29312.155303,-15100.201217,-172371.487050
10823.539340,-9622.677246,-19097.313304,-134986.026748
10823.542560,-1184.329507,14804.118840,-2604.724693
10823.545780,-15692.365970,32865.143825,26047.246932
10823.548999,-7254.018232,7994.224174,-79061.055394
10823.552219,-11251.130318,-5181.441594,-93310.431656
10823.555439,-5921.647536,-1036.288319,-119970.554987
10823.558659,6513.812290,4737.318029,-107866.246118
10823.561878,6809.894666,18949.272115,-76149.892501
10823.565098,2220.617826,10510.924376,-75077.358804
10823.568318,-2812.782580,-2664.741391,-79367.493593
10823.571538,-7846.182985,5625.565159,-72779.072310
10823.574757,9326.594869,10807.006753,-49183.330972
10823.577977,-2960.823768,16136.489536,-41828.814191
10823.581197,-7105.977043,4145.153275,-92697.555258
10823.584417,1332.370696,-296.082377,-112309.600007
10823.587636,-5921.647536,10214.842000,-71400.100414
10823.590856,5181.441594,17172.777854,-59295.791545
10823.594076,-444.123565,17764.942608,-60061.887043
10823.597296,3108.864956,5329.482782,-91318.583362
10823.600515,-10658.965565,-5625.565159,-85802.695776
10823.603735,2960.823768,15840.407159,-42901.347888
10823.606955,-4145.153275,4293.194464,-58223.257848
10823.610175,-19393.395680,7846.182985,-56078.190454
10823.613395,-15100.201217,5181.441594,-71859.757712
10823.616614,25018.960840,15248.242405,-69101.813920
10823.619864,14952.160028,740.205942,-116599.734796
10823.623114,-7846.182985,-32421.020260,-140042.257034
10823.626363,-26943.496289,-23834.631332,-128091.167266
10823.629613,-10955.047942,17764.942608,18692.730151
10823.632862,-13471.748144,31236.690752,35393.612008
10823.636112,-3849.070898,-7402.059420,-107253.369720
10823.639362,-4589.276840,-22798.343014,-170379.638755
10823.642611,-11991.336260,9770.718434,-76456.330700
10823.645861,4737.318029,11547.212695,-68029.280222
10823.649111,5477.523971,21910.095883,-46578.606278
10823.652360,-4441.235652,-1184.329507,-75383.797003
10823.655610,-11103.089130,-1036.288319,-87334.886772
10823.658860,888.247130,7698.141797,-65730.993728
10823.662109,1628.453072,7402.059420,-69101.813920
10823.665359,-4885.359217,8586.388927,-61747.297139
10823.668609,-14804.118840,3849.070898,-72932.291410
10823.671858,-8882.471304,-2664.741391,-84423.723880
10823.675108,-2368.659014,-4885.359217,-81665.780087
10823.678357,2960.823768,6365.771101,-76149.892501
10823.681607,-17172.777854,-444.123565,-71246.881314
10823.684857,-6217.729913,6661.853478,-69561.471218
10823.688106,-2960.823768,3404.947333,-78141.740796
10823.691356,-11399.171507,9178.553681,-79673.931792
10823.694606,4145.153275,-11991.336260,-91778.240660
10823.697844,-20133.601622,0.000000,-56537.847752
10823.701082,-25018.960840,8586.388927,-54852.437657
10823.704321,9918.759623,39378.956114,-39224.089498
10823.707559,30792.567187,25759.166782,-105414.740525
10823.710797,7698.141797,-21465.972318,-179572.784731
10823.714036,-9770.718434,-9918.759623,-96068.375449
10823.717274,-1184.329507,16284.530724,21144.235745
10823.720512,-14804.118840,29312.155303,19305.606550
10823.723751,-8586.388927,19541.436869,-31716.353617
10823.726989,-2960.823768,-4145.153275,-113382.133704
10823.730227,-7105.977043,-1776.494261,-114148.229202
10823.733465,16580.613101,9030.512492,-100358.510238
10823.736704,6365.771101,7994.224174,-90399.268764
10823.739942,-2812.782580,10066.800811,-74770.920605
10823.743180,12435.459826,4737.318029,-79980.369991
10823.746419,-444.123565,7254.018232,-78141.740796
10823.749657,-592.164754,7846.182985,-74004.825107
10823.752895,7402.059420,6809.894666,-74617.701505
10823.756134,-5329.482782,9178.553681,-71246.881314
10823.759372,0.000000,6809.894666,-74004.825107
10823.762610,740.205942,12879.583391,-68488.937521
10823.765849,-6957.935855,12583.501014,-67109.965625
10823.769087,-592.164754,11103.089130,-71859.757712
10823.772325,1776.494261,888.247130,-88407.420469
10823.775564,5773.606348,5477.523971,-82278.656485
10823.778802,148.041188,-4441.235652,-95761.937250
10823.782040,-13323.706956,15100.201217,-65424.555529
10823.785278,5033.400406,18357.107362,-53013.808462
10823.788517,11547.212695,7846.182985,-80746.465489
10823.791755,14211.954086,-4145.153275,-117825.487592
10823.794993,-18357.107362,-30496.484810,-122115.622381
10823.798232,-40711.326810,15100.201217,-4443.353888
10823.801460,-5477.523971,36566.173535,21603.893044
10823.804689,-5625.565159,3404.947333,-96068.375449
10823.807917,10362.883188,-23390.507767,-184629.015018
10823.811146,-3701.029710,-15396.283594,-156436.700692
10823.814374,-7254.018232,19245.354492,-79520.712692
10823.817602,13471.748144,21021.848753,-49642.988270
10823.820831,-7402.059420,1776.494261,-59755.448844
10823.824059,-7994.224174,-2516.700203,-71553.319513
10823.827288,-4589.276840,-1184.329507,-67109.965625
10823.830516,-8586.388927,6069.688724,-59142.572446
10823.833745,-7550.100608,3701.029710,-69714.690318
10823.836973,-2812.782580,4589.276840,-72779.072310
10823.840202,-14211.954086,-888.247130,-81972.218286
10823.843430,-15248.242405,-5181.441594,-91471.802461
10823.846659,2368.659014,2960.823768,-88254.201370
10823.849887,-9178.553681,2516.700203,-72779.072310
10823.853115,-4737.318029,11399.171507,-70174.347617
10823.856344,2664.741391,-888.247130,-96987.690047
10823.859572,0.000000,-2960.823768,-94689.403553
10823.862801,-15988.448347,888.247130,-64658.460031
10823.866029,-10066.800811,11547.212695,-39377.308597
10823.869258,7550.100608,16876.695478,-42748.128788
10823.872486,28571.949361,-3849.070898,-112156.380907
10823.875715,-5181.441594,-22650.301825,-142034.105329
10823.878943,-30348.443622,9918.759623,-32022.791816
10823.882172,-12583.501014,25759.166782,12563.966167
10823.885400,-3108.864956,29016.072926,16394.443657
10823.888628,-6513.812290,-3108.864956,-105261.521425
10823.891857,15396.283594,-23094.425390,-172524.706150
10823.895085,6365.771101,20429.683999,-85802.695776
10823.898314,-1332.370696,28571.949361,-34933.954709
10823.901542,2960.823768,10362.883188,-49796.207370
10823.904763,1184.329507,7254.018232,-62973.049936
10823.907983,-3701.029710,5329.482782,-77375.645298
10823.911204,2960.823768,4441.235652,-80133.589091
10823.914424,4293.194464,5625.565159,-73851.606007
10823.917645,-7550.100608,11547.212695,-74311.263306
10823.920865,5921.647536,7254.018232,-78448.178995
10823.924086,1332.370696,6513.812290,-93310.431656
10823.927306,-4441.235652,7698.141797,-86875.229473
10823.930527,296.082377,13027.624579,-67109.965625
10823.933747,-1036.288319,14211.954086,-58836.134246
10823.936968,-1924.535449,17912.983796,-54852.437657
10823.940188,5921.647536,2516.700203,-93616.869856
10823.943409,-10214.842000,5477.523971,-100358.510238
10823.946629,11991.336260,8142.265362,-85343.038477
10823.949850,1332.370696,-740.205942,-66190.651027
10823.953070,-24722.878463,7846.182985,-48723.673673
10823.956291,-24130.713709,18357.107362,-41522.375992
10823.959511,9326.594869,31532.773129,-43361.005187
10823.962732,11991.336260,-7550.100608,-137437.532341
10823.965952,-2960.823768,-27091.537477,-157815.672588
10823.969173,-6957.935855,-5625.565159,-43207.786087
10823.972393,-22354.219448,23094.425390,27732.657028
10823.975614,-7994.224174,25611.125593,5209.449386
10823.978835,-18357.107362,-5625.565159,-73698.386908
10823.982055,-19097.313304,-7846.182985,-102350.358533
10823.985276,2368.659014,296.082377,-84883.381178
10823.988496,10955.047942,12879.583391,-74311.263306
10823.991717,-3701.029710,2960.823768,-83504.409282
10823.994937,6809.894666,-740.205942,-99898.852939
10823.998158,-6809.894666,3997.112087,-76762.768900
10824.001378,-10066.800811,11103.089130,-43973.881585
10824.004599,-9918.759623,6069.688724,-49796.207370
10824.007813,-8290.306550,-592.164754,-79367.493593
10824.011027,296.082377,888.247130,-79673.931792
10824.014241,-7550.100608,-6957.935855,-91625.021561
10824.017456,-8290.306550,4145.153275,-76762.768900
10824.020670,-5773.606348,9770.718434,-67569.622924
10824.023884,11695.253884,9178.553681,-76456.330700
10824.027098,-20725.766376,-8142.265362,-97294.128246
10824.030313,-17616.901420,4737.318029,-78294.959896
10824.033527,11251.130318,9918.759623,-72625.853210
10824.036741,32865.143825,11251.130318,-89786.392366
10824.039955,5773.606348,-14211.954086,-130236.234660
10824.043170,-27091.537477,-8142.265362,-60827.982541
10824.046384,-23834.631332,46632.974346,36159.707506
10824.049598,-11251.130318,29312.155303,32176.010916
10824.052812,-3552.988522,4145.153275,-70021.128517
10824.056027,8142.265362,-23982.672521,-171145.734253
10824.059241,5181.441594,13767.830521,-117365.830294
10824.062455,4589.276840,31088.649564,-50255.864669
10824.065669,10362.883188,19097.313304,-56078.190454
10824.068884,3701.029710,12139.377449,-64198.802732
10824.072098,4589.276840,-1036.288319,-80133.589091
10824.075312,-1628.453072,4737.318029,-71553.319513
10824.078526,4737.318029,5625.565159,-64811.679131
10824.081741,-3701.029710,7105.977043,-68948.594820
10824.084955,-2516.700203,5625.565159,-64658.460031
10824.088169,5773.606348,3404.947333,-73698.386908
10824.091383,-7994.224174,6513.812290,-82585.094684
10824.094597,-4441.235652,13471.748144,-75230.577904
10824.097812,14211.954086,15544.324782,-76456.330700
10824.101026,-7550.100608,3552.988522,-84576.942979
10824.104240,-4737.318029,9030.512492,-86722.010374
10824.107454,1924.535449,2072.576638,-84576.942979
10824.110664,-21614.013506,9178.553681,-50255.864669
10824.113873,-1332.370696,15396.283594,-49949.426470
10824.117083,27091.537477,14359.995275,-78754.617194
10824.120292,13471.748144,6513.812290,-102350.358533
10824.123502,-5181.441594,-26499.372724,-165476.627568
10824.126711,-23242.466579,-8290.306550,-76762.768900
10824.129920,-17616.901420,26055.249158,38764.432199
10824.133130,-19541.436869,25611.125593,-7201.297681
10824.136339,-15840.407159,8142.265362,-39070.870398
10824.139549,-4589.276840,-14952.160028,-136824.655943
10824.142758,-5773.606348,-3849.070898,-123494.594278
10824.145967,7994.224174,16876.695478,-75996.673402
10824.149177,-1480.411884,14952.160028,-55005.656756
10824.152386,-1776.494261,-4885.359217,-65424.555529
10824.155596,-10066.800811,-1480.411884,-73545.167808
10824.158805,-18801.230927,13175.665768,-54545.999458
10824.162015,2072.576638,9178.553681,-60521.544342
10824.165224,-2368.659014,-2220.617826,-84730.162079
10824.168433,-8734.430116,-1776.494261,-99898.852939
10824.171643,-1036.288319,-2368.659014,-86262.353075
10824.174852,-5773.606348,-4145.153275,-79520.712692
10824.178062,-4885.359217,7254.018232,-64658.460031
10824.181271,-296.082377,0.000000,-66803.527426
10824.184480,-13915.871710,3552.988522,-68029.280222
10824.187690,-6661.853478,-4441.235652,-83964.066581
10824.190899,-15100.201217,-2812.782580,-78448.178995
10824.194109,-25611.125593,-2220.617826,-65577.774629
10824.197318,-7846.182985,30348.443622,-28039.095227
10824.200528,7402.059420,31680.814318,-64045.583633
10824.203737,29016.072926,-9030.512492,-153985.195098
10824.206946,-592.164754,-15248.242405,-136824.655943
10824.210156,3108.864956,8734.430116,-25281.151434
10824.213362,-10955.047942,18357.107362,-11951.089769
10824.216567,-4885.359217,23538.548956,-3677.258390
10824.219773,148.041188,5477.523971,-77375.645298
10824.222979,-10066.800811,148.041188,-108479.122517
10824.226185,7402.059420,2072.576638,-102810.015832
10824.229391,1776.494261,1628.453072,-93310.431656
10824.232596,3108.864956,15988.448347,-81206.122788
10824.235802,5921.647536,9474.636058,-87028.448573
10824.239008,2220.617826,592.164754,-75690.235202
10824.242214,-6217.729913,12287.418637,-62666.611736
10824.245420,9030.512492,10955.047942,-67569.622924
10824.248625,0.000000,13471.748144,-65424.555529
10824.251831,-10066.800811,7105.977043,-76303.111601
10824.255037,10510.924376,9770.718434,-86262.353075
10824.258243,4885.359217,5625.565159,-85189.819378
10824.261449,-4441.235652,17320.819043,-65884.212828
10824.264655,10955.047942,7550.100608,-78754.617194
10824.267860,-6069.688724,-2960.823768,-77069.207099
10824.271066,-22502.260637,6069.688724,-57763.600549
10824.274272,22946.384202,17764.942608,-53013.808462
10824.277478,7994.224174,7846.182985,-93770.088955
10824.280684,-10510.924376,-27091.537477,-140655.133433
10824.283889,-8142.265362,-27683.702231,-141727.667130
10824.287095,-19985.560434,1776.494261,-20378.140247
10824.290301,-17616.901420,31236.690752,29724.505322
10824.293507,-6217.729913,888.247130,-64505.240932
10824.296713,-3404.947333,-11695.253884,-143413.077226
10824.299918,-1036.288319,3256.906145,-116599.734796
10824.303124,3997.112087,1036.288319,-100358.510238
10824.306330,2664.741391,13915.871710,-69714.690318
10824.309536,1036.288319,7105.977043,-65118.117330
10824.312742,-888.247130,1480.411884,-68335.718422
10824.315936,-12731.542202,10955.047942,-56384.628653
10824.319139,-8290.306550,8586.388927,-54392.780358
10824.322342,-4885.359217,1924.535449,-66190.651027
10824.325545,-12435.459826,1776.494261,-67263.184724
10824.328749,-10955.047942,-5921.647536,-83044.751983
10824.331952,1036.288319,3256.906145,-84730.162079
10824.335155,-8290.306550,4441.235652,-78294.959896
10824.338358,-3404.947333,9326.594869,-66803.527426
10824.341562,-8438.347739,-6957.935855,-79367.493593
10824.344765,-19393.395680,5921.647536,-65118.117330
10824.347968,10066.800811,9326.594869,-73545.167808
10824.351171,32569.061448,14508.036463,-100205.291138
10824.354375,30052.361245,11843.295072,-134832.807648
10824.357578,-5625.565159,-22650.301825,-155364.166994
10824.360781,-14063.912898,8586.388927,-29418.067123
10824.363984,-14063.912898,34049.473332,34780.735609
10824.367188,-1776.494261,10362.883188,-49030.111872
10824.370391,6069.688724,-24574.837274,-163637.998373
10824.373594,-1036.288319,-296.082377,-142034.105329
10824.376798,9030.512492,7698.141797,-109551.656214
10824.380001,5477.523971,17172.777854,-62819.830836
10824.383204,-296.082377,12879.583391,-59602.229744
10824.386407,9770.718434,-6217.729913,-74924.139704
10824.389611,-8586.388927,5033.400406,-62666.611736
10824.392814,-3701.029710,9178.553681,-63432.707234
10824.396017,-1036.288319,8438.347739,-56691.066852
10824.399220,-8586.388927,13767.830521,-58376.476948
10824.402424,2960.823768,5625.565159,-80593.246390
10824.405627,-740.205942,296.082377,-95915.156350
10824.408830,-148.041188,16580.613101,-78754.617194
10824.412033,4885.359217,12139.377449,-76456.330700
10824.415237,-9326.594869,13619.789333,-70634.004916
10824.418476,12139.377449,10510.924376,-80593.246390
10824.421715,2072.576638,-12731.542202,-95608.718150
10824.424955,-21762.054695,3256.906145,-59602.229744
10824.428194,-39675.038491,11399.171507,-41062.718693
10824.431433,8734.430116,36862.255912,-13176.842566
10824.434673,18061.024985,1628.453072,-109858.094413
10824.437912,-9178.553681,-27979.784608,-181717.852126
10824.441151,7994.224174,-9770.718434,-92697.555258
10824.444391,-17764.942608,-2072.576638,-69561.471218
10824.447630,-14804.118840,27831.743419,14249.376263
10824.450869,-17024.736666,9622.677246,-45659.291681
10824.454109,-13323.706956,-8882.471304,-100358.510238
10824.457348,-12731.542202,-7846.182985,-101737.482134
10824.460588,5477.523971,2220.617826,-86415.572174
10824.463827,4145.153275,16728.654289,-68488.937521
10824.467066,-6513.812290,11547.212695,-74311.263306
10824.470306,-5329.482782,4589.276840,-78601.398095
10824.473545,-6069.688724,1332.370696,-75537.016103
10824.476784,-2516.700203,2812.782580,-63432.707234
10824.480024,-13175.665768,-2664.741391,-64658.460031
10824.483263,-7994.224174,5773.606348,-71093.662214
10824.486502,-10510.924376,1480.411884,-68948.594820
10824.489742,-888.247130,5329.482782,-69255.033019
10824.492981,-20725.766376,1036.288319,-74770.920605
10824.496220,0.000000,13915.871710,-70940.443115
10824.499460,25907.207970,444.123565,-101431.043935
10824.502699,296.082377,-10955.047942,-107253.369720
10824.505938,7698.141797,-15988.448347,-139122.942437
10824.509178,-26351.331535,-148.041188,-45199.634382
10824.512417,-18209.066173,48557.509795,40756.280494
10824.515656,2960.823768,11991.336260,-52707.370262
10824.518896,2516.700203,-15396.283594,-158275.329887
10824.522127,1628.453072,-10362.883188,-141727.667130
10824.525359,4293.194464,14211.954086,-108172.684318
10824.528590,9474.636058,27239.578666,-63279.488135
10824.531822,-592.164754,12583.501014,-52094.493864
10824.535054,-7254.018232,-444.123565,-65730.993728
10824.538285,4885.359217,8290.306550,-67876.061123
10824.541517,3404.947333,17172.777854,-67722.842023
10824.544748,12287.418637,6661.853478,-69714.690318
10824.547980,1628.453072,3404.947333,-91778.240660
10824.551211,-4589.276840,7105.977043,-99898.852939
10824.554443,10510.924376,4885.359217,-86415.572174
10824.557674,-2220.617826,12731.542202,-61900.516238
10824.560906,-4293.194464,13915.871710,-65577.774629
10824.564138,4293.194464,11103.089130,-54852.437657
10824.567369,-15692.365970,2664.741391,-65118.117330
10824.570601,-2368.659014,17468.860231,-66190.651027
10824.573832,15248.242405,740.205942,-95915.156350
10824.577064,-148.041188,1184.329507,-105414.740525
10824.580295,-23686.590144,-15692.365970,-115833.639298
10824.583527,-29904.320057,-6513.812290,-58529.696047
10824.586759,-148.041188,35677.926404,7507.735880
10824.589990,6513.812290,5921.647536,-70327.566716
10824.593222,6957.935855,-16136.489536,-164404.093871
10824.596453,-1332.370696,-8586.388927,-128704.043664
10824.599679,-4737.318029,15692.365970,-30184.162621
10824.602904,-1036.288319,7550.100608,-43207.786087
10824.606130,-16876.695478,9326.594869,-26353.685131
10824.609356,-14656.077652,3701.029710,-57150.724151
10824.612581,-4885.359217,-7254.018232,-97294.128246
10824.615807,-10955.047942,-2220.617826,-97294.128246
10824.619032,-444.123565,1776.494261,-77988.521696
10824.622258,-12435.459826,3997.112087,-71553.319513
10824.625484,-6957.935855,8438.347739,-59755.448844
10824.628709,2516.700203,-7698.141797,-80746.465489
10824.631935,-7550.100608,-1628.453072,-87488.105872
10824.635160,-1924.535449,7698.141797,-74004.825107
10824.638386,2368.659014,10510.924376,-70634.004916
10824.641611,-17024.736666,1776.494261,-75537.016103
10824.644837,-1332.370696,13323.706956,-75077.358804
10824.648063,21169.889941,-7402.059420,-91471.802461
10824.651288,-25759.166782,-7698.141797,-72319.415011
10824.654514,-25167.002028,5477.523971,-38917.651298
10824.657739,-16580.613101,12879.583391,-9346.365076
10824.660965,-10510.924376,43079.985824,6128.763984
10824.664191,6513.812290,-592.164754,-114914.324700
10824.667416,13767.830521,-12435.459826,-183862.919520
10824.670642,-5477.523971,1480.411884,-106487.274222
10824.673867,13175.665768,29312.155303,-13789.718964
10824.677093,2960.823768,18209.066173,-29877.724422
10824.680318,-4293.194464,15396.283594,-41675.595091
10824.683544,-7846.182985,-3849.070898,-80746.465489
10824.686770,-3849.070898,-6069.688724,-93003.993457
10824.689995,-2812.782580,10066.800811,-62513.392637
10824.693221,1924.535449,8734.430116,-66803.527426
10824.696446,-6217.729913,7105.977043,-91318.583362
10824.699672,-7846.182985,9326.594869,-93616.869856
10824.702892,7846.182985,592.164754,-93616.869856
10824.706113,7994.224174,20281.642811,-60368.325242
10824.709334,-888.247130,13175.665768,-68642.156621
10824.712554,5921.647536,10362.883188,-89479.954166
10824.715775,-4885.359217,-4737.318029,-96681.251848
10824.718995,-12879.583391,-1776.494261,-77375.645298
10824.722216,1184.329507,11843.295072,-46272.168079
10824.725436,11547.212695,20281.642811,-50868.741067
10824.728657,1628.453072,-7402.059420,-118438.363991
10824.731877,-8734.430116,-31976.896694,-127325.071768
10824.735098,-30644.525999,-13619.789333,-94842.622652
10824.738318,-18949.272115,19985.560434,23442.522239
10824.741539,-16284.530724,20873.807564,-9499.584175
10824.744760,-888.247130,-13323.706956,-127171.852668
10824.747980,11991.336260,-7105.977043,-147396.773815
10824.751201,-1036.288319,6661.853478,-86722.010374
10824.754421,-3997.112087,9030.512492,-84270.504780
10824.757642,-1184.329507,11547.212695,-48723.673673
10824.760862,2368.659014,5773.606348,-45659.291681
10824.764083,-6661.853478,3997.112087,-74004.825107
10824.767303,-10807.006753,-4737.318029,-92391.117059
10824.770524,-20429.683999,-3997.112087,-76609.549800
10824.773745,-14656.077652,6217.729913,-55465.314055
10824.776965,3997.112087,11103.089130,-52707.370262
10824.780186,-5773.606348,-592.164754,-86875.229473
10824.783406,-5329.482782,-444.123565,-109091.998915
10824.786627,1332.370696,-2072.576638,-92391.117059
10824.789847,11843.295072,9770.718434,-63279.488135
10824.793068,-16728.654289,-3997.112087,-78141.740796
10824.796288,-31088.649564,-15988.448347,-84730.162079
10824.799509,-25315.043216,11251.130318,-16547.662757
10824.802729,-1036.288319,49741.839302,17160.539155
10824.805983,29016.072926,1036.288319,-115220.762899
10824.809237,4441.235652,-21169.889941,-204087.840667
10824.812491,9770.718434,-444.123565,-88407.420469
10824.815745,1924.535449,14508.036463,-60981.201641
10824.818998,4145.153275,35233.802839,4596.572988
10824.822252,4145.153275,11547.212695,-52554.151163
10824.825506,-5921.647536,-3108.864956,-105261.521425
10824.828760,-13619.789333,-1628.453072,-87794.544071
10824.832014,-2812.782580,5033.400406,-67722.842023
10824.835267,2812.782580,13323.706956,-58070.038748
10824.838521,-3552.988522,10510.924376,-79980.369991
10824.841775,9770.718434,5625.565159,-102503.577632
10824.845029,1184.329507,2960.823768,-93463.650756
10824.848282,-1480.411884,14063.912898,-65424.555529
10824.851536,7254.018232,22206.178260,-48110.797274
10824.854790,1924.535449,13323.706956,-53013.808462
10824.858044,-20873.807564,8882.471304,-66956.746525
10824.861298,13915.871710,5181.441594,-83810.847481
10824.864551,888.247130,-10066.800811,-91318.583362
10824.867805,-13471.748144,10658.965565,-65424.555529
10824.871059,4885.359217,18505.148550,-61134.420740
10824.874313,9474.636058,28275.866984,-46272.168079
10824.877566,17468.860231,-296.082377,-117212.611194
10824.880820,-3849.070898,-27239.578666,-152453.004102
10824.884074,-13027.624579,-5477.523971,-53779.903960
10824.887328,-18061.024985,23390.507767,25434.370534
10824.890582,-15692.365970,9326.594869,-42288.471490
10824.893835,-18653.189738,6365.771101,-66956.746525
10824.897089,-2220.617826,-4885.359217,-124260.689776
10824.900343,-6365.771101,-4737.318029,-112309.600007
10824.903597,-10214.842000,13323.706956,-77988.521696
10824.906851,14359.995275,21762.054695,-59602.229744
10824.910132,5181.441594,-592.164754,-79980.369991
10824.913413,-6513.812290,7402.059420,-79061.055394
10824.916695,-7402.059420,-2516.700203,-93157.212557
10824.919976,4737.318029,-6069.688724,-83197.971083
10824.923258,-3701.029710,7402.059420,-51175.179266
10824.926539,-8734.430116,2960.823768,-56537.847752
10824.929821,-15988.448347,1776.494261,-72932.291410
10824.933102,-1184.329507,-4885.359217,-76149.892501
10824.936384,-18209.066173,-5773.606348,-79367.493593
10824.939665,-14804.118840,13471.748144,-56537.847752
10824.942947,7402.059420,31976.896694,-66190.651027
10824.946228,36122.049970,15692.365970,-140195.476134
10824.949510,5625.565159,-18801.230927,-174363.335345
10824.952791,3404.947333,-10066.800811,-147243.554716
10824.956073,-2664.741391,9030.512492,-15015.471761
10824.959354,-14656.077652,27091.537477,24361.836836
10824.962635,-9622.677246,8586.388927,-57610.381450
10824.965917,2368.659014,-148.041188,-123188.156078
10824.969198,-7698.141797,3701.029710,-119510.897688
10824.972480,-5921.647536,-3552.988522,-95455.499051
10824.975761,-4293.194464,8290.306550,-69101.813920
10824.979043,-3701.029710,21762.054695,-67263.184724
10824.982324,14508.036463,2960.823768,-86875.229473
10824.985606,12139.377449,5181.441594,-87334.886772
10824.988887,-2812.782580,15396.283594,-72625.853210
10824.992169,9326.594869,16284.530724,-72625.853210
10824.995450,2072.576638,4441.235652,-61440.858940
10824.998732,-2960.823768,5773.606348,-58070.038748
10825.002013,-19097.313304,4441.235652,-60215.106143
10825.005295,11695.253884,19689.478057,-64352.021832
10825.008576,5625.565159,-1776.494261,-94995.841752
10825.011857,-7550.100608,-740.205942,-102810.015832
10825.015162,-31976.896694,-9918.759623,-99592.414740
10825.018467,-8882.471304,23982.672521,-42594.909689
10825.021772,18505.148550,22798.343014,-52554.151163
10825.025076,2664.741391,-19837.519246,-138663.285138
10825.028381,-2960.823768,-13915.871710,-121655.965082
10825.031686,1628.453072,-10658.965565,-104342.206828
10825.034990,-6365.771101,16876.695478,-18233.072852
10825.038295,-12879.583391,16728.654289,-34933.954709
10825.041600,-9178.553681,5477.523971,-79520.712692
10825.044904,-14359.995275,-4441.235652,-105414.740525
10825.048209,3552.988522,-4293.194464,-102656.796732
10825.051514,3256.906145,888.247130,-90552.487864
10825.054818,-5921.647536,1036.288319,-75996.673402
10825.058123,-15396.283594,9326.594869,-63279.488135
10825.061428,-2220.617826,1628.453072,-75537.016103
10825.064732,1628.453072,2664.741391,-84730.162079
10825.068037,-7550.100608,3701.029710,-75383.797003
10825.071342,-1184.329507,2220.617826,-67416.403824
10825.074646,-16284.530724,-1628.453072,-68182.499322
10825.077951,-6069.688724,10362.883188,-53013.808462
10825.081256,13175.665768,5329.482782,-77528.864398
10825.084560,21910.095883,-740.205942,-107713.027019
10825.087865,-16284.530724,-16284.530724,-110011.313513
10825.091170,-23390.507767,9474.636058,-25740.808733
10825.094474,-14359.995275,29016.072926,5056.230287
10825.097779,-7550.100608,25611.125593,612.876398
10825.101084,-4885.359217,-2072.576638,-105414.740525
10825.104388,6957.935855,-14952.160028,-161799.369178
10825.107693,14656.077652,18801.230927,-85955.914876
10825.110998,10955.047942,25759.166782,-48723.673673
10825.114302,6069.688724,17616.901420,-55158.875856
10825.117607,-6809.894666,8438.347739,-63126.269035
10825.120931,8882.471304,3701.029710,-78448.178995
10825.124254,-2664.741391,4737.318029,-70940.443115
10825.127578,1332.370696,1776.494261,-72932.291410
10825.130901,-6217.729913,9326.594869,-71093.662214
10825.134225,148.041188,16728.654289,-71706.538613
10825.137548,-1924.535449,296.082377,-83044.751983
10825.140872,-3701.029710,8142.265362,-73545.167808
10825.144195,-6661.853478,4589.276840,-70174.347617
10825.147519,6661.853478,18949.272115,-62973.049936
10825.150842,3108.864956,-592.164754,-95302.279951
10825.154166,2368.659014,-2072.576638,-94842.622652
10825.157489,-27535.661042,-12583.501014,-93616.869856
10825.160813,-18801.230927,24722.878463,-25740.808733
10825.164137,16728.654289,30496.484810,-27885.876127
10825.167460,3552.988522,-19837.519246,-144638.830022
10825.170784,2220.617826,-19245.354492,-156743.138891
10825.174107,-296.082377,-9918.759623,-137897.189640
10825.177431,-8142.265362,16728.654289,-23595.741338
10825.180754,-9326.594869,15840.407159,-17620.196454
10825.184078,-9474.636058,5181.441594,-66037.431928
10825.187401,-16432.571912,-4885.359217,-100818.167537
10825.190725,-5477.523971,-7254.018232,-101890.701234
10825.194048,4885.359217,8290.306550,-75537.016103
10825.197372,-4737.318029,3108.864956,-78754.617194
10825.200695,-4589.276840,4145.153275,-73391.948708
10825.204019,-888.247130,-2516.700203,-80899.684589
10825.207342,-5773.606348,-3404.947333,-77528.864398
10825.210666,-7994.224174,5329.482782,-56844.285952
10825.213989,-8882.471304,5033.400406,-60674.763442
10825.217313,5181.441594,2812.782580,-73085.510509
10825.220636,-14359.995275,-10807.006753,-89939.611465
10825.223960,-26943.496289,3701.029710,-61594.078039
10825.227299,-11991.336260,35085.761651,-31103.477219
10825.230637,31384.731941,30052.361245,-86875.229473
10825.233976,29756.278868,3701.029710,-116293.296596
10825.237314,8290.306550,-17764.942608,-188612.711608
10825.240653,12879.583391,-2516.700203,-91471.802461
10825.243992,-3701.029710,25167.002028,13023.623466
10825.247330,-17616.901420,16580.613101,-13330.061665
10825.250669,-1776.494261,10807.006753,-83197.971083
10825.254007,-5921.647536,740.205942,-83197.971083
10825.257346,-10214.842000,-6069.688724,-101890.701234
10825.260684,-7402.059420,3849.070898,-84883.381178
10825.264023,-1776.494261,15840.407159,-65271.336430
10825.267362,4441.235652,11251.130318,-78141.740796
10825.270700,7550.100608,8734.430116,-91931.459760
10825.274039,9030.512492,15840.407159,-80746.465489
10825.277377,-1480.411884,5773.606348,-79214.274493
10825.280716,3108.864956,15396.283594,-58376.476948
10825.284055,-8882.471304,7402.059420,-64964.898230
10825.287393,8734.430116,15988.448347,-57763.600549
10825.290732,-2960.823768,-1480.411884,-79520.712692
10825.294070,-15988.448347,4885.359217,-80440.027290
10825.297409,-29904.320057,7402.059420,-67416.403824
10825.300748,9030.512492,20281.642811,-61747.297139
10825.304086,10807.006753,9622.677246,-104342.206828
10825.307425,1332.370696,-19245.354492,-143106.639026
10825.310763,-6809.894666,-13767.830521,-71553.319513
10825.314102,-16876.695478,15100.201217,8273.831378
10825.317440,-6809.894666,20133.601622,919.314598
10825.320779,-18209.066173,4441.235652,-50562.302868
10825.324118,-7846.182985,-5329.482782,-102810.015832
10825.327456,-3701.029710,444.123565,-109398.437114
10825.330795,444.123565,1776.494261,-93003.993457
10825.334158,-740.205942,14508.036463,-69561.471218
10825.337508,148.041188,2812.782580,-76915.987999
10825.340858,-5921.647536,4441.235652,-64964.898230
10825.344209,1036.288319,4145.153275,-71859.757712
10825.347559,-11843.295072,-3849.070898,-78754.617194
10825.350909,-14211.954086,4589.276840,-65577.774629
10825.354260,-6809.894666,-296.082377,-66497.089226
10825.357610,2960.823768,18505.148550,-55158.875856
10825.360960,12435.459826,-7550.100608,-104648.645027
10825.364311,-24278.754898,-10214.842000,-100358.510238
10825.367661,-18801.230927,7254.018232,-29571.286223
10825.371011,-4737.318029,43672.150578,8273.831378
10825.374362,24278.754898,8586.388927,-93463.650756
10825.377712,6809.894666,-12139.377449,-140042.257034
10825.381062,5625.565159,-11991.336260,-177274.498237
10825.384412,8734.430116,18653.189738,-68182.499322
10825.387763,2072.576638,29608.237680,-4596.572988
10825.391113,-3256.906145,9178.553681,-55465.314055
10825.394463,-4589.276840,-3404.947333,-99132.757441
10825.397814,-3404.947333,-1628.453072,-86109.133975
10825.401164,-6957.935855,6809.894666,-66037.431928
10825.404514,0.000000,9770.718434,-61440.858940
10825.407865,-2664.741391,-592.164754,-84730.162079
10825.411215,1628.453072,6513.812290,-80286.808190
10825.414538,148.041188,19393.395680,-68182.499322
10825.417862,-444.123565,10362.883188,-76303.111601
10825.421185,5625.565159,16432.571912,-74464.482406
10825.424508,14804.118840,2220.617826,-101277.824836
10825.427832,-14804.118840,-3701.029710,-90552.487864
10825.431155,-2960.823768,14508.036463,-47804.359075
10825.434478,14359.995275,15692.365970,-47344.701776
10825.437802,-3256.906145,-10510.924376,-97447.347346
10825.441125,-1628.453072,-22798.343014,-125639.661672
10825.444448,-37454.420665,-4441.235652,-58682.915147
10825.447771,-22502.260637,25167.002028,3370.820191
10825.451095,6365.771101,11695.253884,-62819.830836
10825.454418,4145.153275,-21317.931130,-145404.925520
10825.457741,-6513.812290,6069.688724,-113841.791003
10825.461065,5033.400406,7550.100608,-101431.043935
10825.464388,5181.441594,7402.059420,-79214.274493
10825.467711,-8290.306550,-1480.411884,-62206.954438
10825.471035,-6217.729913,4441.235652,-41522.375992
10825.474358,-20133.601622,10955.047942,-45046.415282
10825.477681,-8438.347739,-2368.659014,-83964.066581
10825.481005,-3701.029710,-2368.659014,-80286.808190
10825.484328,-15248.242405,-2812.782580,-90552.487864
10825.487651,1332.370696,7105.977043,-84576.942979
10825.490974,-4293.194464,-148.041188,-96987.690047
10825.494298,6661.853478,5181.441594,-92391.117059
10825.497621,-1036.288319,-3404.947333,-78448.178995
10825.500944,-14656.077652,-8882.471304,-73085.510509
10825.504268,-34641.638086,-1184.329507,-25127.932334
10825.507591,-6069.688724,34937.720462,14402.595362
10825.510914,14952.160028,14804.118840,-63892.364533
10825.514238,3108.864956,-12731.542202,-176508.402739
10825.517561,20281.642811,-5181.441594,-153985.195098
10825.520859,8734.430116,8290.306550,-131002.330158
10825.524157,7698.141797,23538.548956,-42441.690589
10825.527455,1924.535449,16136.489536,-24821.494135
10825.530753,-5477.523971,5181.441594,-55005.656756
10825.534051,-3256.906145,-6217.729913,-78448.178995
10825.537349,-6809.894666,-3997.112087,-91778.240660
10825.540647,-4145.153275,9030.512492,-71859.757712
10825.543945,-3552.988522,888.247130,-69714.690318
10825.547243,8882.471304,15544.324782,-70787.224015
10825.550541,-6513.812290,6957.935855,-88254.201370
10825.553839,-1184.329507,3849.070898,-85955.914876
10825.557137,-2220.617826,11399.171507,-60674.763442
10825.560435,11251.130318,16580.613101,-53626.684860
10825.563733,2220.617826,6069.688724,-72319.415011
10825.567031,-12139.377449,-2220.617826,-82585.094684
10825.570329,-34789.679274,10362.883188,-61594.078039
10825.573627,27239.578666,33309.267390,-46885.044478
10825.576925,18061.024985,296.082377,-118285.144891
10825.580223,-15248.242405,-16432.571912,-148775.745712
10825.583521,-2072.576638,-21021.848753,-146324.240118
10825.586819,-4737.318029,4145.153275,-27732.657028
10825.590117,-14508.036463,20429.683999,16700.881856
10825.593415,-14359.995275,-1036.288319,-62053.735338
10825.596712,-1036.288319,-7550.100608,-121043.088684
10825.600010,-5033.400406,-3552.988522,-106640.493322
10825.603308,296.082377,-4885.359217,-100971.386636
10825.606606,-6217.729913,9474.636058,-79061.055394
10825.609904,-14656.077652,3256.906145,-69255.033019
10825.613202,-296.082377,-444.123565,-63739.145434
10825.616500,-7105.977043,2664.741391,-66037.431928
10825.619798,-9770.718434,2516.700203,-72625.853210
10825.623096,-2664.741391,-148.041188,-72625.853210
10825.626373,9918.759623,-3849.070898,-83964.066581
10825.629649,-19689.478057,-5033.400406,-84883.381178
10825.632926,-12139.377449,15100.201217,-56844.285952
10825.636202,2220.617826,34049.473332,-49336.550071
10825.639479,37898.544230,17024.736666,-116906.172995
10825.642755,31236.690752,-10066.800811,-147396.773815
10825.646032,-4145.153275,-13175.665768,-150614.374907
10825.649308,-3997.112087,2220.617826,-37079.022103
10825.652585,-2368.659014,29460.196492,18999.168350
10825.655861,-15248.242405,9030.512492,-49183.330972
10825.659138,2220.617826,6069.688724,-113995.010102
10825.662414,-1924.535449,-1480.411884,-106640.493322
10825.665691,-9918.759623,296.082377,-103882.549529
10825.668967,-296.082377,13175.665768,-85649.476676
10825.672244,13175.665768,17912.983796,-69867.909418
10825.675520,8142.265362,10807.006753,-74311.263306
10825.678797,16136.489536,1776.494261,-90552.487864
10825.682074,5921.647536,5773.606348,-98826.319242
10825.685350,-4737.318029,14063.912898,-69561.471218
10825.688627,296.082377,7105.977043,-43054.566988
10825.691903,-3256.906145,14804.118840,-44893.196183
10825.695180,-2960.823768,0.000000,-89633.173266
10825.698456,-11547.212695,-3256.906145,-97294.128246
10825.701733,-14656.077652,13915.871710,-72932.291410
10825.705009,4589.276840,30200.402434,-42288.471490
10825.708286,18653.189738,9030.512492,-93157.212557
10825.711562,296.082377,-23982.672521,-164557.312970
10825.714839,-3849.070898,-16136.489536,-94689.403553
10825.718115,-10066.800811,18357.107362,13023.623466
10825.721392,-18801.230927,19393.395680,-8580.269578
10825.724668,-18357.107362,5773.606348,-42748.128788
10825.727945,-1184.329507,-9178.553681,-111849.942708
10825.731203,-3701.029710,-9030.512492,-107100.150620
10825.734461,-6661.853478,10362.883188,-78754.617194
10825.737720,888.247130,14063.912898,-72319.415011
10825.740978,-9030.512492,-2072.576638,-76456.330700
10825.744237,-1036.288319,2368.659014,-76915.987999
10825.747495,-7402.059420,-4293.194464,-72625.853210
10825.750754,-13767.830521,7846.182985,-61287.639840
10825.754012,-8142.265362,-592.164754,-63432.707234
10825.757270,-444.123565,5329.482782,-73698.386908
10825.760529,11251.130318,7402.059420,-83964.066581
10825.763787,-1036.288319,-12139.377449,-106027.616923
10825.767046,-22354.219448,-6809.894666,-70787.224015
10825.770304,-9770.718434,30496.484810,11338.213370
10825.773562,12435.459826,27239.578666,-30490.600820
10825.776821,5477.523971,-10658.965565,-153219.099600
10825.780079,10510.924376,-8882.471304,-158581.768086
10825.783338,10510.924376,1480.411884,-132381.302054
10825.786596,4441.235652,21021.848753,-38151.555800
10825.789855,-6661.853478,18653.189738,-21757.112143
10825.793113,-444.123565,4145.153275,-59908.667944
10825.796371,-6069.688724,1628.453072,-76456.330700
10825.799630,-10362.883188,7994.224174,-86262.353075
10825.802888,740.205942,1480.411884,-77222.426198
10825.806147,3849.070898,13471.748144,-81052.903688
10825.809405,4885.359217,16136.489536,-89786.392366
10825.812663,4145.153275,6957.935855,-92084.678860
10825.815922,-10214.842000,10214.842000,-73391.948708
10825.819180,7550.100608,13471.748144,-53320.246661
10825.822439,0.000000,-3256.906145,-62206.954438
10825.825697,-26943.496289,15840.407159,-49030.111872
10825.828956,9770.718434,16136.489536,-64198.802732
10825.832214,13323.706956,3404.947333,-106334.055122
10825.835457,-4737.318029,-20429.683999,-132074.863855
10825.838701,-19097.313304,-4737.318029,-59755.448844
10825.841944,-10066.800811,4441.235652,-35853.269306
10825.845187,-16580.613101,24870.919651,2911.162892
10825.848430,-1628.453072,-1332.370696,-76609.549800
10825.851674,-3256.906145,-14804.118840,-132074.863855
10825.854917,-11695.253884,1480.411884,-98979.538342
10825.858160,3108.864956,16432.571912,-58836.134246
10825.861403,-6957.935855,11103.089130,-61440.858940
10825.864647,-6957.935855,16728.654289,-61287.639840
10825.867890,4293.194464,-888.247130,-83657.628382
10825.871133,-7698.141797,-1776.494261,-87488.105872
10825.874377,-6809.894666,-4737.318029,-79827.150892
10825.877620,-4589.276840,-1332.370696,-63892.364533
10825.880863,-18061.024985,-1628.453072,-56384.628653
10825.884106,-6217.729913,13175.665768,-45812.510780
10825.887350,15100.201217,148.041188,-91012.145162
10825.890593,-15988.448347,-9474.636058,-109245.218015
10825.893836,-20429.683999,-2368.659014,-62360.173537
10825.897080,-3256.906145,31976.896694,4443.353888
10825.900323,-11103.089130,43820.191766,8580.269578
10825.903566,4441.235652,11103.089130,-89939.611465
10825.906809,19393.395680,-17912.983796,-171911.829751
10825.910053,1480.411884,9770.718434,-105721.178724
10825.913296,2812.782580,26795.455100,-28498.752526
10825.916539,-7550.100608,12139.377449,-33401.763713
10825.919783,-9918.759623,8142.265362,-45046.415282
10825.923026,-2368.659014,1924.535449,-60827.982541
10825.926269,-6957.935855,-592.164754,-68642.156621
10825.929512,-5625.565159,13471.748144,-69255.033019
10825.932756,9474.636058,15692.365970,-89633.173266
10825.935999,3404.947333,11843.295072,-105108.302326
10825.939267,8734.430116,11991.336260,-101277.824836
10825.942536,3256.906145,-5033.400406,-105261.521425
10825.945804,11843.295072,18949.272115,-60827.982541
10825.949072,2812.782580,5921.647536,-55771.752254
10825.952341,-15840.407159,1332.370696,-55924.971354
10825.955609,-36418.132346,10362.883188,-58836.134246
10825.958877,-22650.301825,22798.343014,-19458.825649
10825.962146,10066.800811,13471.748144,-65730.993728
10825.965414,1480.411884,-17468.860231,-159654.301783
10825.968682,-148.041188,-9030.512492,-127937.948166
10825.971951,-592.164754,7994.224174,-32635.668215
10825.975219,-8438.347739,22650.301825,-21603.893044
10825.978487,-4145.153275,8290.306550,-38764.432199
10825.981756,-3404.947333,-3701.029710,-77835.302597
10825.985024,-13471.748144,-1628.453072,-91012.145162
10825.988292,-4885.359217,-444.123565,-89020.296868
10825.991561,-8290.306550,1332.370696,-76456.330700
10825.994829,-11399.171507,-4737.318029,-79214.274493
10825.998097,-10510.924376,4441.235652,-59908.667944
10826.001366,296.082377,4145.153275,-71093.662214
10826.004634,-10658.965565,-2220.617826,-93310.431656
10826.007902,9326.594869,-5181.441594,-98673.100142
10826.011171,-15544.324782,-6365.771101,-80133.589091
10826.014439,-18061.024985,22354.219448,-33401.763713
10826.017707,-4293.194464,26351.331535,-19765.263848
10826.020976,14804.118840,31976.896694,-53779.903960
10826.024244,19985.560434,-5625.565159,-144945.268222
10826.027512,2960.823768,-9770.718434,-145251.706421
10826.030781,-2664.741391,10214.842000,-39070.870398
10826.034049,-3701.029710,23982.672521,5056.230287
10826.037317,-8734.430116,14211.954086,-25281.151434
10826.040586,-16580.613101,16136.489536,-52400.932063
10826.043837,3404.947333,9918.759623,-90399.268764
10826.047088,5329.482782,-6217.729913,-117672.268493
10826.050339,-7550.100608,2368.659014,-102197.139433
10826.053591,2960.823768,14211.954086,-81512.560987
10826.056842,7550.100608,20281.642811,-56078.190454
10826.060093,296.082377,8882.471304,-81972.218286
10826.063345,6513.812290,5477.523971,-91165.364262
10826.066596,-4441.235652,4885.359217,-60368.325242
10826.069847,2368.659014,24722.878463,-35700.050207
10826.073098,2072.576638,7698.141797,-60368.325242
10826.076350,-6809.894666,-8734.430116,-87794.544071
10826.079601,-39971.120868,1924.535449,-68029.280222
10826.082852,10362.883188,30940.608376,-39836.965896
10826.086104,12879.583391,3404.947333,-114454.667401
10826.089355,-3404.947333,-20281.642811,-164404.093871
10826.092606,-888.247130,-7994.224174,-71706.538613
10826.095857,-740.205942,6365.771101,-42594.909689
10826.099109,-13175.665768,22354.219448,2145.067394
10826.102360,-11103.089130,-1480.411884,-68642.156621
10826.105611,-7698.141797,-10807.006753,-109398.437114
10826.108862,-5329.482782,5773.606348,-83351.190182
10826.112114,-4293.194464,4293.194464,-80286.808190
10826.115365,-13323.706956,3849.070898,-88100.982270
10826.118616,-7105.977043,-1480.411884,-86568.791274
10826.121868,-5033.400406,-1184.329507,-60827.982541
10826.125119,-3552.988522,9474.636058,-65271.336430
10826.128370,-8586.388927,-1184.329507,-92391.117059
10826.131621,148.041188,8142.265362,-83657.628382
10826.134873,12583.501014,-6957.935855,-98213.442844
10826.138124,-24278.754898,-888.247130,-77069.207099
10826.141375,-13323.706956,5921.647536,-38764.432199
10826.144627,-5181.441594,38194.626607,-3064.381992
10826.147864,18653.189738,12287.418637,-78907.836294
10826.151101,10658.965565,-1036.288319,-117059.392094
10826.154338,11399.171507,-13323.706956,-174363.335345
10826.157575,8438.347739,10510.924376,-93923.308055
10826.160812,-5033.400406,22798.343014,-18079.853753
10826.164049,-12287.418637,21317.931130,-22063.550342
10826.167286,-3108.864956,2516.700203,-79214.274493
10826.170523,-2812.782580,-444.123565,-82891.532884
10826.173760,-10510.924376,-296.082377,-96528.032748
10826.176997,2960.823768,11991.336260,-66956.746525
10826.180234,-5773.606348,17024.736666,-68948.594820
10826.183471,3997.112087,11843.295072,-96068.375449
10826.186708,10510.924376,5625.565159,-98213.442844
10826.189945,3108.864956,3108.864956,-96068.375449
10826.193182,-11547.212695,12287.418637,-53473.465760
10826.196419,3849.070898,14952.160028,-41675.595091
10826.199656,12731.542202,4145.153275,-75537.016103
10826.202893,-3256.906145,-15100.201217,-116599.734796
10826.206130,-8734.430116,-26943.496289,-132994.178453
10826.209368,-32272.979071,-1036.288319,-45812.510780
10826.212605,-14508.036463,34493.596897,10725.336972
10826.215842,10510.924376,10955.047942,-70327.566716
10826.219079,296.082377,-28275.866984,-157509.234389
10826.222316,-7105.977043,740.205942,-111390.285409
10826.225553,-1924.535449,5773.606348,-98366.661943
10826.228790,5921.647536,17024.736666,-52707.370262
10826.232027,2812.782580,9770.718434,-48876.892772
10826.235264,-10807.006753,-1776.494261,-78907.836294
10826.238501,-15692.365970,592.164754,-86415.572174
10826.241738,-7105.977043,-3997.112087,-74770.920605
10826.244975,-2812.782580,3256.906145,-70634.004916
10826.248212,-13471.748144,4145.153275,-63892.364533
10826.251437,10066.800811,2812.782580,-87794.544071
10826.254663,-11399.171507,-17764.942608,-119510.897688
10826.257888,-19837.519246,7105.977043,-63279.488135
10826.261114,2664.741391,39823.079680,-14862.252661
10826.264339,8438.347739,42931.944636,-1378.971896
10826.267564,10658.965565,1776.494261,-118131.925792
10826.270790,9178.553681,-21762.054695,-184475.795918
10826.274015,-444.123565,-740.205942,-71093.662214
10826.277240,-296.082377,37158.338288,24361.836836
10826.280466,-2960.823768,28719.990550,-1685.410096
10826.283691,-8734.430116,9178.553681,-58529.696047
10826.286916,1924.535449,-2516.700203,-106180.836023
10826.290142,-4885.359217,2368.659014,-100205.291138
10826.293367,7254.018232,10807.006753,-83351.190182
10826.296593,11251.130318,15100.201217,-74617.701505
10826.299818,-7402.059420,2368.659014,-76303.111601
10826.303043,6661.853478,7846.182985,-84730.162079
10826.306269,-740.205942,15396.283594,-59602.229744
10826.309494,1184.329507,14211.954086,-55924.971354
10826.312719,-18653.189738,4589.276840,-64198.802732
10826.315945,7994.224174,6661.853478,-72319.415011
10826.319170,17764.942608,4293.194464,-96221.594549
10826.322395,10658.965565,2072.576638,-118744.802190
10826.325621,-5625.565159,-19245.354492,-138203.627839
10826.328879,-21465.972318,-888.247130,-55158.875856
10826.332132,-19985.560434,22946.384202,13636.499864
10826.335385,-2960.823768,12435.459826,-48570.454573
10826.338638,-5033.400406,-3701.029710,-78448.178995
10826.341891,-10362.883188,-15988.448347,-135139.245847
10826.345144,-2664.741391,-740.205942,-100511.729338
10826.348397,-5033.400406,16728.654289,-49030.111872
10826.351650,-4441.235652,14952.160028,-54086.342159
10826.354903,-1776.494261,1332.370696,-87334.886772
10826.358156,-7402.059420,-6957.935855,-86415.572174
10826.361409,1628.453072,-6217.729913,-87947.763170
10826.364662,-1924.535449,2516.700203,-75230.577904
10826.367915,-20577.725188,-1776.494261,-60981.201641
10826.371169,-4737.318029,16136.489536,-48876.892772
10826.374422,9030.512492,-8586.388927,-93770.088955
10826.377675,-20577.725188,-10066.800811,-97600.566445
10826.380928,-19837.519246,-7846.182985,-101124.605736
10826.384181,-11843.295072,18505.148550,-14402.595362
10826.387434,-9474.636058,34937.720462,-6435.202183
10826.390687,8438.347739,5033.400406,-111083.847210
10826.393940,19837.519246,-14952.160028,-172831.144349
10826.397193,6513.812290,9326.594869,-95455.499051
10826.400446,8882.471304,21910.095883,-79827.150892
10826.403699,-296.082377,14656.077652,-35546.831107
10826.406952,-1480.411884,4145.153275,-43207.786087
10826.410205,-888.247130,6513.812290,-60981.201641
10826.413458,-7254.018232,7402.059420,-79367.493593
10826.416712,296.082377,14211.954086,-91778.240660
10826.419965,9474.636058,11547.212695,-88713.858668
10826.423218,26055.249158,9918.759623,-112156.380907
10826.426471,6957.935855,2368.659014,-108938.779816
10826.429724,-6809.894666,13323.706956,-71553.319513
10826.433000,444.123565,8586.388927,-50102.645569
10826.436276,-8586.388927,3997.112087,-44893.196183
10826.439553,-20429.683999,-5921.647536,-45965.729880
10826.442829,-48261.427418,7994.224174,-31256.696318
10826.446105,1776.494261,21169.889941,-48570.454573
10826.449382,11399.171507,-13915.871710,-135445.684046
10826.452658,-2220.617826,-18949.272115,-158122.110787
10826.455934,5329.482782,10066.800811,-55771.752254
10826.459210,-4737.318029,18653.189738,-39377.308597
10826.462487,-7846.182985,12435.459826,-28498.752526
10826.465763,-5033.400406,5477.523971,-69561.471218
10826.469039,2812.782580,-5921.647536,-97140.909146
10826.472316,-15988.448347,-4293.194464,-85955.914876
10826.475592,-9770.718434,4293.194464,-63432.707234
10826.478868,-11991.336260,-6069.688724,-64505.240932
10826.482144,-7846.182985,3849.070898,-62053.735338
10826.485421,-16432.571912,-1332.370696,-73698.386908
10826.488697,1036.288319,8142.265362,-84730.162079
10826.491973,1924.535449,-9474.636058,-105414.740525
10826.495250,-22946.384202,0.000000,-76456.330700
10826.498526,-17320.819043,-1776.494261,-61900.516238
10826.501802,-5921.647536,33161.226202,9806.022374
10826.505078,7402.059420,20429.683999,-45506.072581
10826.508355,6513.812290,-9326.594869,-151533.689504
10826.511631,7105.977043,-7994.224174,-130695.891959
10826.514907,7846.182985,21762.054695,-34321.078310
10826.518184,-1924.535449,26795.455100,-40756.280494
10826.521460,-2960.823768,15100.201217,-44433.538884
10826.524736,-2960.823768,5033.400406,-72932.291410
10826.528012,1924.535449,7550.100608,-84883.381178
10826.531289,4885.359217,7846.182985,-83657.628382
10826.534565,1924.535449,5921.647536,-82278.656485
10826.537860,-6365.771101,10807.006753,-92544.336158
10826.541156,10658.965565,14804.118840,-91778.240660
10826.544451,4441.235652,7254.018232,-77528.864398
10826.547747,-10955.047942,19245.354492,-59602.229744
10826.551042,6957.935855,11547.212695,-72012.976812
10826.554337,14508.036463,2220.617826,-80133.589091
10826.557633,-11547.212695,-17912.983796,-100664.948437
10826.560928,-40267.203245,2960.823768,-51021.960167
10826.564224,-2072.576638,29164.114115,-13483.280765
10826.567519,2812.782580,3404.947333,-80440.027290
10826.570814,1628.453072,-23686.590144,-156130.262492
10826.574110,-1184.329507,-19541.436869,-151074.032206
10826.577405,-15988.448347,10066.800811,-68488.937521
10826.580701,592.164754,15100.201217,-29571.286223
10826.583996,-3404.947333,7254.018232,-53013.808462
10826.587291,2220.617826,-2220.617826,-90399.268764
10826.590587,-12287.418637,-3701.029710,-85496.257577
10826.593882,-17468.860231,-6661.853478,-77682.083497
10826.597178,-12879.583391,1924.535449,-57916.819649
10826.600473,-1184.329507,7846.182985,-58529.696047
10826.603768,-14952.160028,-7994.224174,-86722.010374
10826.607064,-7254.018232,148.041188,-86415.572174
10826.610359,18505.148550,1184.329507,-85343.038477
10826.613655,-5181.441594,11103.089130,-99745.633840
10826.616950,7254.018232,-7846.182985,-120123.774086
10826.620245,-15248.242405,-2516.700203,-60827.982541
10826.623541,-21021.848753,40119.162056,22676.426741
10826.626836,-3256.906145,24574.837274,-36466.145705
10826.630132,19689.478057,-9622.677246,-153219.099600
10826.633427,6809.894666,-10066.800811,-153985.195098
10826.636722,3552.988522,7550.100608,-124260.689776
10826.640018,-592.164754,14804.118840,-61440.858940
10826.643329,1924.535449,13767.830521,-36312.926605
10826.646640,1036.288319,8438.347739,-47651.139976
10826.649950,-6957.935855,4589.276840,-72319.415011
10826.653261,-7698.141797,13915.871710,-59602.229744
10826.656572,7254.018232,11991.336260,-84576.942979
10826.659883,296.082377,6513.812290,-97140.909146
10826.663194,14211.954086,14656.077652,-87947.763170
10826.666505,5477.523971,-5477.523971,-80899.684589
10826.669816,-12731.542202,888.247130,-70174.347617
10826.673127,-19985.560434,16432.571912,-39224.089498
10826.676438,18061.024985,30200.402434,-47191.482677
10826.679749,3701.029710,-14359.995275,-134679.588548
10826.683060,-10066.800811,-23538.548956,-150920.813106
10826.686371,-10362.883188,-1480.411884,-43667.443386
10826.689681,-11399.171507,26351.331535,9499.584175
10826.692992,-5921.647536,18209.066173,-16241.224558
10826.696303,-11103.089130,-3997.112087,-91931.459760
10826.699614,-2516.700203,-10066.800811,-114148.229202
10826.702925,3997.112087,3404.947333,-88713.858668
10826.706236,-2220.617826,12287.418637,-67722.842023
10826.709547,-8142.265362,6809.894666,-70480.785816
10826.712858,-3849.070898,-6957.935855,-77375.645298
10826.716169,-2960.823768,-2368.659014,-74464.482406
10826.719480,-19837.519246,-592.164754,-67109.965625
10826.722791,-5921.647536,13175.665768,-53167.027561
10826.726102,4145.153275,-3849.070898,-84576.942979
10826.729412,4145.153275,-9030.512492,-97447.347346
10826.732723,-14359.995275,-11843.295072,-94536.184453
10826.736034,-12731.542202,18653.189738,-11797.870669
10826.739345,-5033.400406,33605.349767,-4903.011187
10826.742656,12731.542202,5625.565159,-109245.218015
10826.745967,10362.883188,-14508.036463,-162871.902875
10826.749291,5033.400406,148.041188,-148009.650214
10826.752614,11251.130318,21169.889941,-80593.246390
10826.755938,-4589.276840,14656.077652,-30797.039020
10826.759262,-9030.512492,7846.182985,-44433.538884
10826.762586,2516.700203,3552.988522,-75230.577904
10826.765909,-5033.400406,5181.441594,-85343.038477
10826.769233,-1924.535449,5329.482782,-73238.729609
10826.772557,6069.688724,13323.706956,-73391.948708
10826.775880,-2664.741391,11991.336260,-78294.959896
10826.779204,18061.024985,13027.624579,-88254.201370
10826.782528,-3849.070898,-11103.089130,-97447.347346
10826.785852,-10362.883188,-3404.947333,-89020.296868
10826.789175,-18505.148550,13175.665768,-45199.634382
10826.792499,10955.047942,32124.937883,-32482.449115
10826.795823,0.000000,-6217.729913,-119204.459489
10826.799146,-3404.947333,-25463.084405,-153065.880500
10826.802470,-10807.006753,-4589.276840,-58836.134246
10826.805794,-12287.418637,14804.118840,-28805.190725
10826.809118,3997.112087,18653.189738,-19458.825649
10826.812441,-13767.830521,-3108.864956,-85343.038477
10826.815765,-14804.118840,-7994.224174,-109704.875314
10826.819089,296.082377,-1628.453072,-80746.465489
10826.822412,-15100.201217,10362.883188,-49183.330972
10826.825736,-11547.212695,9474.636058,-47038.263577
10826.829060,-3552.988522,888.247130,-66343.870127
10826.832384,1036.288319,-2664.741391,-94229.746254
10826.835707,-7994.224174,-10658.965565,-100971.386636
10826.839031,-13915.871710,1480.411884,-65884.212828
10826.842355,3997.112087,18209.066173,-44280.319784
10826.845678,24574.837274,22798.343014,-62513.392637
10826.849002,22502.260637,-1924.535449,-117825.487592
10826.852326,-20429.683999,-8438.347739,-96987.690047
10826.855659,-17320.819043,30200.402434,-2145.067394
10826.858992,-1036.288319,29460.196492,-28192.314326
10826.862326,-592.164754,16136.489536,-47038.263577
10826.865659,7994.224174,-6957.935855,-145404.925520
10826.868992,-296.082377,-148.041188,-126558.976270
10826.872326,-148.041188,15692.365970,-58376.476948
10826.875659,9474.636058,16432.571912,-39990.184996
10826.878992,-4737.318029,5033.400406,-67109.965625
10826.882326,-8882.471304,2664.741391,-77988.521696
10826.885659,4885.359217,9030.512492,-75077.358804
10826.888992,-8290.306550,16876.695478,-53779.903960
10826.892325,-5625.565159,17320.819043,-57457.162350
10826.895659,1184.329507,14656.077652,-88100.982270
10826.898992,15248.242405,4145.153275,-112003.161808
10826.902325,4737.318029,-3849.070898,-112769.257306
10826.905659,888.247130,-11843.295072,-117672.268493
10826.908992,-31532.773129,-444.123565,-44586.757984
10826.912325,-15840.407159,23538.548956,15015.471761
10826.915659,-7550.100608,7402.059420,-47038.263577
10826.918992,-2072.576638,-20281.642811,-146477.459218
10826.922325,-4441.235652,-18209.066173,-139276.161536
10826.925659,-3108.864956,3404.947333,-95302.279951
10826.928992,-8142.265362,16136.489536,-55924.971354
10826.932325,-1036.288319,13619.789333,-58223.257848
10826.935658,-1332.370696,-5773.606348,-83504.409282
10826.938992,-22354.219448,-1332.370696,-76456.330700
10826.942325,-7698.141797,296.082377,-69561.471218
10826.945658,-5625.565159,592.164754,-54852.437657
10826.948992,-20133.601622,-740.205942,-62053.735338
10826.952325,-5773.606348,7254.018232,-74004.825107
10826.955658,9622.677246,-13767.830521,-103116.454031
10826.958992,-26203.290347,-6809.894666,-87641.324971
10826.962332,-17024.736666,-4885.359217,-88254.201370
10826.965673,-2664.741391,26499.372724,-7048.078582
10826.969013,-7105.977043,31384.731941,-15168.690860
10826.972354,5329.482782,-740.205942,-124567.127975
10826.975694,11843.295072,-14804.118840,-159960.739982
10826.979035,3701.029710,1184.329507,-132534.521154
10826.982376,7994.224174,24870.919651,-55618.533155
10826.985716,-1480.411884,17764.942608,-37079.022103
10826.989057,-3256.906145,6809.894666,-61747.297139
10826.992397,7105.977043,-148.041188,-92084.678860
10826.995738,-12583.501014,2368.659014,-85802.695776
10826.999078,-1332.370696,13915.871710,-69714.690318
10827.002419,-740.205942,17616.901420,-61134.420740
10827.005760,-1036.288319,11103.089130,-76149.892501
10827.009100,2664.741391,15396.283594,-89020.296868
10827.012441,17172.777854,-1480.411884,-99132.757441
10827.015781,-4145.153275,1184.329507,-86722.010374
10827.019122,-9474.636058,-12879.583391,-94229.746254
10827.022462,-33457.308578,3701.029710,-35393.612008
10827.025803,-10066.800811,23834.631332,-459.657299
10827.029143,-6365.771101,3552.988522,-71859.757712
10827.032484,5477.523971,-26351.331535,-153525.537799
10827.035825,-6365.771101,-2220.617826,-107100.150620
10827.039165,-4885.359217,14063.912898,-80133.589091
10827.042506,6513.812290,11547.212695,-56231.409553
10827.045846,-3404.947333,11103.089130,-62360.173537
10827.049187,1184.329507,4885.359217,-81359.341888
10827.052527,-10066.800811,-2664.741391,-82891.532884
10827.055868,-11251.130318,-296.082377,-68948.594820
10827.059209,1480.411884,296.082377,-71400.100414
10827.062549,-18061.024985,-10362.883188,-77375.645298
10827.065890,-15692.365970,5625.565159,-63432.707234
10827.069236,11695.253884,-1628.453072,-71246.881314
10827.072582,-11843.295072,-6365.771101,-83810.847481
10827.075928,-7994.224174,-4145.153275,-103422.892230
10827.079275,-10807.006753,6957.935855,-55312.094956
10827.082621,-12435.459826,31828.855506,-10265.679673
10827.085967,444.123565,17616.901420,-70327.566716
10827.089313,20281.642811,-13619.789333,-150307.936708
10827.092659,2516.700203,2072.576638,-112156.380907
10827.096006,-1184.329507,18949.272115,-93770.088955
10827.099352,4885.359217,19245.354492,-49183.330972
10827.102698,3997.112087,8438.347739,-54545.999458
10827.106044,-1184.329507,6957.935855,-73698.386908
10827.109390,3701.029710,-1776.494261,-80286.808190
10827.112737,-3256.906145,11991.336260,-58529.696047
10827.116083,-13915.871710,12583.501014,-56844.285952
10827.119429,4737.318029,13027.624579,-56537.847752
10827.122775,-11991.336260,2664.741391,-77835.302597
10827.126121,5329.482782,6661.853478,-83197.971083
10827.129468,19837.519246,5477.523971,-95915.156350
10827.132814,-2664.741391,-296.082377,-102503.577632
10827.136160,-2220.617826,-11695.253884,-127784.729066
10827.139506,-8734.430116,-11991.336260,-71859.757712
10827.142853,-18949.272115,12287.418637,7201.297681
10827.146199,-12583.501014,13767.830521,-24974.713235
10827.149545,-6069.688724,-15692.365970,-118591.583090
10827.152891,-8586.388927,-4589.276840,-110011.313513
10827.156237,-9770.718434,-4441.235652,-112462.819106
10827.159584,-1184.329507,7402.059420,-82585.094684
10827.162930,-7402.059420,17764.942608,-62360.173537
10827.166276,592.164754,-4293.194464,-75383.797003
10827.169622,-4145.153275,-9030.512492,-75996.673402
10827.172968,-15988.448347,0.000000,-62666.611736
10827.176318,-1628.453072,6957.935855,-63126.269035
10827.179668,-19393.395680,-6661.853478,-62973.049936
10827.183018,-14508.036463,10955.047942,-54545.999458
10827.186368,7105.977043,21169.889941,-79980.369991
10827.189718,34493.596897,20133.601622,-125333.223473
10827.193069,16876.695478,1776.494261,-138050.408740
10827.196419,13175.665768,-9030.512492,-148469.307512
10827.199769,-7550.100608,6069.688724,-45659.291681
10827.203119,-3256.906145,31384.731941,15015.471761
10827.206469,-740.205942,6513.812290,-54545.999458
10827.209819,-7698.141797,-1628.453072,-62666.611736
10827.213169,-9178.553681,-5773.606348,-97753.785545
10827.216519,-296.082377,1332.370696,-83351.190182
10827.219869,-1184.329507,14211.954086,-66343.870127
10827.223219,12435.459826,16432.571912,-70940.443115
10827.226569,7994.224174,9770.718434,-89633.173266
10827.229919,-3849.070898,10510.924376,-95149.060852
10827.233269,-2220.617826,9474.636058,-83197.971083
10827.236619,15100.201217,12139.377449,-65730.993728
10827.239969,7402.059420,2664.741391,-70021.128517
10827.243319,-14656.077652,-13915.871710,-78754.617194
10827.246669,-44856.480085,4737.318029,-39377.308597
10827.250019,-4737.318029,27535.661042,-16394.443657
10827.253369,-12583.501014,18061.024985,-14709.033562
10827.256723,2516.700203,-14063.912898,-125026.785274
10827.260077,-3404.947333,-10510.924376,-148162.869313
10827.263432,-4441.235652,12879.583391,-75843.454302
10827.266786,-296.082377,8734.430116,-36772.583904
10827.270140,-5033.400406,19689.478057,-42441.690589
10827.273494,-6069.688724,5921.647536,-52707.370262
10827.276849,-19245.354492,-5921.647536,-75996.673402
10827.280203,-2072.576638,-1332.370696,-83351.190182
10827.283557,-6809.894666,-2368.659014,-81206.122788
10827.286912,444.123565,1036.288319,-76915.987999
10827.290266,-11103.089130,-2072.576638,-92697.555258
10827.293620,-7550.100608,5921.647536,-84423.723880
10827.296974,9178.553681,22206.178260,-78294.959896
10827.300329,38490.708984,23390.507767,-97294.128246
10827.303683,-5033.400406,-10066.800811,-126558.976270
10827.307037,-13767.830521,4145.153275,-63585.926334
10827.310391,-13027.624579,3997.112087,-41215.937792
10827.313746,-1776.494261,28571.949361,-1072.533697
10827.317100,-1480.411884,11695.253884,-66343.870127
10827.320454,2664.741391,1480.411884,-117672.268493
10827.323808,-6069.688724,-6957.935855,-119357.678588
10827.327163,5921.647536,17024.736666,-70327.566716
10827.330517,6365.771101,16580.613101,-74158.044206
10827.333871,7846.182985,14804.118840,-73391.948708
10827.337225,3701.029710,12139.377449,-74617.701505
10827.340580,-4441.235652,6809.894666,-67263.184724
10827.343934,-20873.807564,16284.530724,-51481.617466
10827.347288,-4441.235652,21169.889941,-37079.022103
10827.350642,17468.860231,11547.212695,-63126.269035
10827.353997,-8290.306550,-18357.107362,-126712.195369
10827.357351,-33309.267390,-11251.130318,-100511.729338
10827.360705,-3849.070898,14656.077652,-12563.966167
10827.364063,-8586.388927,15396.283594,-15168.690860
10827.367418,-10807.006753,11399.171507,-43054.566988
10827.370773,1184.329507,-14804.118840,-132994.178453
10827.374128,-9178.553681,-3552.988522,-117825.487592
10827.377483,3256.906145,8586.388927,-65271.336430
10827.380838,-888.247130,14359.995275,-47497.920876
10827.384192,-17024.736666,7254.018232,-62053.735338
10827.387547,-8734.430116,-3701.029710,-70940.443115
10827.390902,-5773.606348,-6365.771101,-78294.959896
10827.394257,-19245.354492,-4145.153275,-69408.252119
10827.397612,444.123565,9770.718434,-60981.201641
10827.400967,-8438.347739,-11399.171507,-88254.201370
10827.404322,-20725.766376,2072.576638,-85036.600278
10827.407677,-10510.924376,4589.276840,-68335.718422
10827.411032,-1776.494261,37898.544230,-28192.314326
10827.414387,15396.283594,20429.683999,-72166.195912
10827.417742,17616.901420,-6365.771101,-146324.240118
10827.421097,-9770.718434,-11547.212695,-110317.751712
10827.424452,6809.894666,8290.306550,-82125.437386
10827.427807,5033.400406,25759.166782,-18999.168350
10827.431162,-8882.471304,17468.860231,-34167.859211
10827.434517,-12879.583391,-1184.329507,-85649.476676
10827.437872,1480.411884,-2516.700203,-99285.976541
10827.441227,-7105.977043,5625.565159,-76609.549800
10827.444582,6809.894666,22058.137072,-68488.937521
10827.447937,-2072.576638,15544.324782,-82278.656485
10827.451292,12287.418637,16580.613101,-98673.100142
10827.454647,11547.212695,-2812.782580,-109398.437114
10827.458002,-12139.377449,1184.329507,-60981.201641
10827.461357,-14508.036463,22650.301825,-26660.123330
10827.464712,9030.512492,21614.013506,-56384.628653
10827.468067,3256.906145,3997.112087,-88713.858668
10827.471382,2220.617826,-21762.054695,-162105.807377
10827.474698,-5329.482782,-17024.736666,-106334.055122
10827.478014,-11103.089130,23538.548956,-9959.241474
10827.481330,-11695.253884,14508.036463,-37538.679402
10827.484645,-3552.988522,5033.400406,-59295.791545
10827.487961,-9326.594869,-6809.894666,-98366.661943
10827.491277,-15248.242405,2368.659014,-87794.544071
10827.494592,-7402.059420,5625.565159,-66190.651027
10827.497908,-2812.782580,1480.411884,-67109.965625
10827.501224,-5921.647536,-2812.782580,-76762.768900
10827.504540,9918.759623,-1036.288319,-96834.470947
10827.507855,-16432.571912,-10955.047942,-99132.757441
10827.511171,-9030.512492,11843.295072,-58682.915147
10827.514487,21169.889941,27387.619854,-58070.038748
10827.517803,25018.960840,10510.924376,-108325.903417
10827.521118,-9326.594869,-10807.006753,-131921.644756
10827.524434,-5329.482782,-6513.812290,-115373.981999
10827.527750,-11547.212695,16728.654289,-14402.595362
10827.531066,4145.153275,26203.290347,-8273.831378
10827.534381,4441.235652,1036.288319,-104342.206828
10827.537697,-2516.700203,-2812.782580,-132228.082955
10827.541013,-2220.617826,1480.411884,-86262.353075
10827.544329,740.205942,9030.512492,-65577.774629
10827.547644,-2072.576638,21317.931130,-39990.184996
10827.550960,11843.295072,18801.230927,-61134.420740
10827.554276,-2516.700203,592.164754,-93157.212557
10827.557592,-1628.453072,8290.306550,-91012.145162
10827.560907,-888.247130,3997.112087,-67569.622924
10827.564223,-11695.253884,11547.212695,-52247.712964
10827.567539,6217.729913,20873.807564,-44893.196183
10827.570855,9622.677246,5329.482782,-94229.746254
10827.574170,-12879.583391,-24278.754898,-142493.762628
10827.577453,-10658.965565,-7254.018232,-76915.987999
10827.580735,-10807.006753,17764.942608,3524.039291
10827.584018,-11103.089130,23390.507767,1072.533697
10827.587301,-13175.665768,2516.700203,-74770.920605
10827.590583,-6661.853478,-9474.636058,-119664.116788
10827.593866,-11399.171507,740.205942,-88100.982270
10827.597148,4589.276840,15544.324782,-55924.971354
10827.600431,-7698.141797,7105.977043,-66956.746525
10827.603713,-5329.482782,1924.535449,-79367.493593
10827.606996,-2220.617826,-592.164754,-93463.650756
10827.610278,7550.100608,-2220.617826,-84576.942979
10827.613561,-23834.631332,-5921.647536,-70940.443115
10827.616844,-1628.453072,9178.553681,-53473.465760
10827.620126,25018.960840,15988.448347,-79673.931792
10827.623409,12287.418637,-3849.070898,-125333.223473
10827.626691,444.123565,-13027.624579,-151227.251305
10827.629974,-11251.130318,2812.782580,-65730.993728
10827.633256,-12435.459826,29608.237680,13023.623466
10827.636539,5329.482782,14952.160028,-48110.797274
10827.639821,7698.141797,-10362.883188,-143106.639026
10827.643104,-3701.029710,4885.359217,-124720.347074
10827.646387,-6069.688724,-5773.606348,-105261.521425
10827.649669,-296.082377,18357.107362,-49642.988270
10827.652952,6217.729913,17024.736666,-49489.769171
10827.656234,12139.377449,8142.265362,-83197.971083
10827.659517,-5625.565159,4885.359217,-87794.544071
10827.662799,5329.482782,16284.530724,-67876.061123
10827.666082,6365.771101,4145.153275,-77528.864398
10827.669364,-19393.395680,9326.594869,-49796.207370
10827.672647,-1184.329507,19689.478057,-51481.617466
10827.675930,16432.571912,12583.501014,-88560.639569
10827.679212,-11695.253884,-18949.272115,-148469.307512
10827.682505,-296.082377,-13471.748144,-105261.521425
10827.685798,-2516.700203,-10066.800811,-85955.914876
10827.689091,-13915.871710,22798.343014,-4903.011187
10827.692383,-10807.006753,8290.306550,-51788.055665
10827.695676,-9178.553681,-6069.688724,-98979.538342
10827.698969,-7846.182985,-6365.771101,-93157.212557
10827.702262,-6661.853478,740.205942,-74770.920605
10827.705555,-13323.706956,2960.823768,-78294.959896
10827.708848,-8438.347739,3108.864956,-69255.033019
10827.712140,-11843.295072,-5921.647536,-77528.864398
10827.715433,740.205942,5181.441594,-77069.207099
10827.718726,-14508.036463,-7105.977043,-82125.437386
10827.722019,-12287.418637,5477.523971,-68642.156621
10827.725312,-6513.812290,20577.725188,-49489.769171
10827.728605,11251.130318,41895.656317,-45659.291681
10827.731897,22502.260637,4145.153275,-118591.583090
10827.735190,5625.565159,-8734.430116,-140808.352532
10827.738483,-7550.100608,4589.276840,-52400.932063
10827.741776,1628.453072,25018.960840,459.657299
10827.745069,-4589.276840,19689.478057,-10572.117872
10827.748361,-2072.576638,9770.718434,-61900.516238
10827.751654,-6513.812290,-8734.430116,-107559.807919
10827.754947,-6069.688724,4589.276840,-90705.706963
10827.758240,12287.418637,19837.519246,-66497.089226
10827.761533,7994.224174,18505.148550,-66956.746525
10827.764826,-5329.482782,3552.988522,-88254.201370
10827.768118,-6661.853478,8882.471304,-93157.212557
10827.771411,21614.013506,9178.553681,-84730.162079
10827.774704,6365.771101,-592.164754,-72166.195912
10827.777997,-20873.807564,-10066.800811,-58223.257848
10827.781290,-42635.862259,12879.583391,-28805.190725
10827.784583,-3256.906145,20577.725188,-39377.308597
10827.787845,-3849.070898,11547.212695,-41215.937792
10827.791108,2220.617826,-18357.107362,-139276.161536
10827.794370,-6365.771101,2368.659014,-131002.330158
10827.797633,-444.123565,13027.624579,-63739.145434
10827.800896,-444.123565,5329.482782,-42901.347888
10827.804158,-5773.606348,2072.576638,-52247.712964
10827.807421,-3256.906145,-2072.576638,-57150.724151
10827.810683,-22354.219448,444.123565,-57457.162350
10827.813946,-10510.924376,1184.329507,-66803.527426
10827.817209,-1332.370696,-9326.594869,-85343.038477
10827.820471,-16580.613101,-3256.906145,-93923.308055
10827.823734,9474.636058,6957.935855,-92391.117059
10827.826996,31384.731941,13619.789333,-109245.218015
10827.830259,25759.166782,3256.906145,-124413.908875
10827.833522,-17468.860231,-2664.741391,-86722.010374
10827.836784,-10214.842000,28868.031738,-766.095498
10827.840047,-12731.542202,29312.155303,-10878.556072
10827.843309,5921.647536,-9178.553681,-119357.678588
10827.846572,8438.347739,-10362.883188,-131461.987457
10827.849835,-2960.823768,4885.359217,-126558.976270
10827.853097,6217.729913,15692.365970,-72625.853210
10827.856360,12731.542202,17616.901420,-53626.684860
10827.859622,4145.153275,14804.118840,-70634.004916
10827.862885,11843.295072,6957.935855,-91931.459760
10827.866148,-1036.288319,296.082377,-93003.993457
10827.869410,-8586.388927,22946.384202,-61900.516238
10827.872673,8586.388927,14656.077652,-56078.190454
10827.875935,-5477.523971,3701.029710,-75996.673402
10827.879198,-28719.990550,4145.153275,-80440.027290
10827.882460,8142.265362,15544.324782,-68182.499322
10827.885723,592.164754,-592.164754,-110011.313513
10827.888986,11991.336260,-4885.359217,-126099.318971
10827.892261,6513.812290,-18061.024985,-141727.667130
10827.895537,-9326.594869,10510.924376,-56078.190454
10827.898812,-10955.047942,15248.242405,-28498.752526
10827.902087,-8882.471304,-2368.659014,-58989.353346
10827.905363,-8438.347739,1184.329507,-60215.106143
10827.908638,-18209.066173,2812.782580,-72012.976812
10827.911914,-5921.647536,-7698.141797,-83657.628382
10827.915189,-9030.512492,-2368.659014,-86568.791274
10827.918465,-4737.318029,-6069.688724,-94229.746254
10827.921740,-7846.182985,2220.617826,-76149.892501
10827.925016,-444.123565,10510.924376,-76303.111601
10827.928291,26203.290347,10510.924376,-92850.774358
10827.931567,7254.018232,-6365.771101,-108172.684318
10827.934842,-15692.365970,6661.853478,-50868.741067
10827.938117,-5773.606348,35825.967593,11338.213370
10827.941393,-5329.482782,22946.384202,-53167.027561
10827.944668,8438.347739,-11547.212695,-153065.880500
10827.947944,16580.613101,-11991.336260,-154751.290596
10827.951219,1332.370696,12435.459826,-112616.038206
10827.954495,3108.864956,28127.825796,-55005.656756
10827.957770,19097.313304,15100.201217,-63739.145434
10827.961046,5477.523971,10658.965565,-84883.381178
10827.964321,-1184.329507,9918.759623,-89173.515967
10827.967597,9326.594869,3701.029710,-85496.257577
10827.970872,-10807.006753,19837.519246,-54086.342159
10827.974147,4737.318029,19985.560434,-53473.465760
10827.977423,4589.276840,-1776.494261,-91471.802461
10827.980698,-34789.679274,-4885.359217,-86875.229473
10827.983974,740.205942,21465.972318,-49336.550071
10827.987249,-296.082377,16580.613101,-39224.089498
10827.990525,11991.336260,740.205942,-100052.072039
10827.993800,740.205942,-18209.066173,-146630.678317
10827.997048,-2960.823768,1628.453072,-88713.858668
10828.000295,-7846.182985,17172.777854,-28958.409824
10828.003542,-9622.677246,3849.070898,-42441.690589
10828.006790,-7846.182985,-148.041188,-61747.297139
10828.010037,-17616.901420,-1184.329507,-77222.426198
10828.013285,-12583.501014,-3849.070898,-69714.690318
10828.016532,-11547.212695,-2220.617826,-66803.527426
10828.019779,-1332.370696,592.164754,-90399.268764
10828.023027,-8142.265362,-6661.853478,-102810.015832
10828.026274,-8586.388927,-1332.370696,-91471.802461
10828.029522,8142.265362,24870.919651,-85036.600278
10828.032769,40711.326810,23538.548956,-100971.386636
10828.036016,-1480.411884,148.041188,-115527.201098
10828.039264,-10510.924376,9474.636058,-56844.285952
10828.042511,-10214.842000,21021.848753,-7507.735880
10828.045759,-5921.647536,14359.995275,-43054.566988
10828.049006,-888.247130,13323.706956,-58529.696047
10828.052254,5477.523971,-3552.988522,-122881.717879
10828.055501,-11103.089130,-5921.647536,-122422.060580
10828.058748,5477.523971,16284.530724,-68488.937521
10828.061996,14656.077652,25611.125593,-48876.892772
10828.065243,-2368.659014,10510.924376,-73085.510509
10828.068491,11251.130318,9178.553681,-80286.808190
10828.071738,-4737.318029,-3849.070898,-83657.628382
10828.074985,-14359.995275,19245.354492,-46118.948980
10828.078233,18061.024985,15840.407159,-55312.094956
10828.081480,-444.123565,-14063.912898,-98673.100142
10828.084728,-44412.356520,-15988.448347,-91778.240660
10828.087975,-10362.883188,-11843.295072,-81972.218286
10828.091222,-14508.036463,15248.242405,-11184.994271
10828.094470,-14359.995275,13619.789333,-43207.786087
10828.097717,-296.082377,-9622.677246,-120276.993186
10828.100980,-10510.924376,-1776.494261,-106793.712421
10828.104242,3552.988522,15100.201217,-65424.555529
10828.107504,2664.741391,14063.912898,-66037.431928
10828.110767,-1184.329507,3997.112087,-72625.853210
10828.114029,-4441.235652,-2220.617826,-83044.751983
10828.117291,-11843.295072,-11695.253884,-85496.257577
10828.120553,-12435.459826,4737.318029,-56384.628653
10828.123816,1480.411884,-2072.576638,-54239.561258
10828.127078,3404.947333,-1184.329507,-62206.954438
10828.130340,-18505.148550,-3849.070898,-74617.701505
10828.133603,-12435.459826,15544.324782,-40909.499593
10828.136865,5033.400406,27535.661042,-34014.640111
10828.140127,5921.647536,12879.583391,-103729.330429
10828.143390,5625.565159,-11843.295072,-147703.212014
10828.146652,11991.336260,-11695.253884,-142187.324429
10828.149914,2220.617826,16728.654289,-73085.510509
10828.153177,9918.759623,27239.578666,-23595.741338
10828.156439,2368.659014,6217.729913,-51021.960167
10828.159701,-2220.617826,10066.800811,-88560.639569
10828.162964,-888.247130,9030.512492,-90858.926063
10828.166226,3552.988522,6661.853478,-75843.454302
10828.169488,-12879.583391,22058.137072,-56384.628653
10828.172750,12731.542202,17912.983796,-72012.976812
10828.176013,8142.265362,-3552.988522,-107253.369720
10828.179288,-25167.002028,-14952.160028,-84730.162079
10828.182563,-21465.972318,13767.830521,-22982.864940
10828.185837,-7402.059420,17912.983796,-4136.915689
10828.189112,-3849.070898,11547.212695,-40296.623195
10828.192387,1480.411884,-23982.672521,-143259.858126
10828.195662,-7994.224174,-3997.112087,-123647.813377
10828.198937,1924.535449,24426.796086,-42288.471490
10828.202212,888.247130,6513.812290,-42288.471490
10828.205487,1184.329507,9622.677246,-61747.297139
10828.208762,-7402.059420,2664.741391,-91012.145162
10828.212037,-9770.718434,-10214.842000,-86262.353075
10828.215312,-23982.672521,-7105.977043,-65884.212828
10828.218587,-4737.318029,10214.842000,-53933.123059
10828.221861,-3701.029710,-10362.883188,-77988.521696
10828.225136,-18949.272115,-7994.224174,-79367.493593
10828.228411,-19245.354492,-592.164754,-76303.111601
10828.231686,-2812.782580,26499.372724,-31563.134518
10828.234961,12731.542202,27239.578666,-53167.027561
10828.238236,18801.230927,3701.029710,-135445.684046
10828.241511,-1924.535449,-11103.089130,-131615.206556
10828.244786,888.247130,-2220.617826,-105874.397824
10828.248061,7550.100608,22650.301825,-28192.314326
10828.251336,7402.059420,22354.219448,-21450.673944
10828.254611,-11399.171507,5181.441594,-72625.853210
10828.257885,3997.112087,2516.700203,-110930.628110
10828.261160,-2220.617826,9474.636058,-91931.459760
10828.264435,-1480.411884,10066.800811,-72166.195912
10828.267710,-2220.617826,19689.478057,-49183.330972
10828.270985,10066.800811,17616.901420,-69867.909418
10828.274260,6513.812290,888.247130,-105874.397824
10828.277535,-19689.478057,-16876.695478,-93463.650756
10828.280810,-28719.990550,12583.501014,-25587.589633
10828.284095,740.205942,22650.301825,-27885.876127
10828.287380,-592.164754,12879.583391,-38917.651298
10828.290665,-1628.453072,-20281.642811,-136518.217744
10828.293949,-4441.235652,1776.494261,-125486.442572
10828.297234,4589.276840,16580.613101,-58070.038748
10828.300519,-2220.617826,10066.800811,-45046.415282
10828.303804,-5033.400406,-592.164754,-75077.358804
10828.307089,1184.329507,-1036.288319,-88100.982270
10828.310374,-14211.954086,-11103.089130,-87181.667672
10828.313659,-15396.283594,-6513.812290,-71553.319513
10828.316944,-7550.100608,2960.823768,-58529.696047
10828.320229,-444.123565,-3108.864956,-70327.566716
10828.323514,-16284.530724,-7994.224174,-82278.656485
10828.326799,-16580.613101,-8882.471304,-85343.038477
10828.330083,-9918.759623,18061.024985,-35240.392908
10828.333368,5773.606348,35825.967593,-23136.084040
10828.336653,7105.977043,10362.883188,-109091.998915
10828.339938,4885.359217,-13323.706956,-152759.442301
10828.343223,5033.400406,1184.329507,-67569.622924
10828.346508,1036.288319,17468.860231,-60368.325242
10828.349793,740.205942,27979.784608,-22829.645840
10828.353078,-740.205942,7402.059420,-48264.016374
10828.356363,7698.141797,6217.729913,-88100.982270
10828.359648,-7550.100608,5625.565159,-97294.128246
10828.362933,6217.729913,6809.894666,-75843.454302
10828.366217,-11843.295072,2516.700203,-69714.690318
10828.369502,-2960.823768,26943.496289,-42748.128788
10828.372787,17912.983796,10807.006753,-75843.454302
10828.376072,-6217.729913,-22206.178260,-121349.526883
10828.379357,-37898.544230,-19393.395680,-77069.207099
10828.382642,-15100.201217,13915.871710,11491.432470
10828.385927,-11103.089130,19541.436869,-15015.471761
10828.389207,-11991.336260,11843.295072,-49489.769171
10828.392500,-5625.565159,-22650.301825,-158734.987186
10828.395793,-17024.736666,-2664.741391,-108019.465218
10828.399086,2072.576638,24870.919651,-30184.162621
10828.402379,-5477.523971,14359.995275,-46578.606278
10828.405671,-7550.100608,4293.194464,-69714.690318
10828.408964,-9474.636058,-11547.212695,-102197.139433
10828.412257,6069.688724,148.041188,-85955.914876
10828.415550,-13323.706956,2960.823768,-63585.926334
10828.418843,-2516.700203,9770.718434,-65118.117330
10828.422135,16284.530724,4589.276840,-99745.633840
10828.425428,30940.608376,16136.489536,-115833.639298
10828.428721,1924.535449,-3552.988522,-135139.245847
10828.432014,-7846.182985,9474.636058,-59142.572446
10828.435307,-15248.242405,33161.226202,1991.848295
10828.438599,-3108.864956,9326.594869,-49796.207370
10828.441892,9474.636058,-15692.365970,-135905.341345
10828.445185,10214.842000,2516.700203,-131002.330158
10828.448478,740.205942,-2368.659014,-123954.251576
10828.451771,10510.924376,16284.530724,-68642.156621
10828.455063,8734.430116,26351.331535,-43820.662486
10828.458356,-5773.606348,4737.318029,-69867.909418
10828.461649,11695.253884,10807.006753,-84117.285680
10828.464942,3404.947333,9474.636058,-84270.504780
10828.468235,-9326.594869,6809.894666,-78141.740796
10828.471527,-30644.525999,8290.306550,-56384.628653
10828.474820,12583.501014,22058.137072,-44893.196183
10828.478113,444.123565,-8734.430116,-111390.285409
10828.481406,6217.729913,-21614.013506,-153065.880500
10828.484699,1776.494261,-8142.265362,-85343.038477
10828.487991,-14508.036463,25907.207970,-8273.831378
10828.491284,-5033.400406,14804.118840,-28498.752526
10828.494583,-4885.359217,0.000000,-68795.375720
10828.497882,-8882.471304,-6513.812290,-99592.414740
10828.501181,-12879.583391,-5477.523971,-91318.583362
10828.504479,-11103.089130,-296.082377,-68029.280222
10828.507778,-12879.583391,-3997.112087,-62513.392637
10828.511077,-13175.665768,3256.906145,-61900.516238
10828.514376,11695.253884,-4589.276840,-88867.077768
10828.517675,-4589.276840,-18061.024985,-106640.493322
10828.520973,-19689.478057,-2368.659014,-68488.937521
10828.524272,-8438.347739,30200.402434,4290.134789
10828.527571,-12287.418637,46632.974346,16700.881856
10828.530870,-3404.947333,27091.537477,-39683.746796
10828.534169,7550.100608,-19689.478057,-148775.745712
10828.537468,4441.235652,-7254.018232,-134066.712150
10828.540766,16580.613101,17468.860231,-50868.741067
10828.544065,-1184.329507,25759.166782,-24668.275036
10828.547364,-6957.935855,10658.965565,-44893.196183
10828.550663,3404.947333,11547.212695,-68488.937521
10828.553962,-6217.729913,5329.482782,-77835.302597
10828.557260,9770.718434,17616.901420,-71553.319513
10828.560559,10658.965565,5625.565159,-87334.886772
10828.563858,-14656.077652,12879.583391,-82891.532884
10828.567157,11547.212695,14063.912898,-81972.218286
10828.570456,21021.848753,17912.983796,-77375.645298
10828.573755,1036.288319,-14063.912898,-112769.257306
10828.577053,-4589.276840,-19985.560434,-118131.925792
10828.580352,-13767.830521,-10955.047942,-54545.999458
10828.583651,-18949.272115,21762.054695,-11797.870669
10828.586950,-14656.077652,4737.318029,-63739.145434
10828.590249,-14508.036463,-2368.659014,-69408.252119
10828.593547,-17468.860231,-2664.741391,-84883.381178
10828.596846,-4589.276840,-3552.988522,-86875.229473
10828.600150,-6809.894666,296.082377,-81818.999186
10828.603453,-10066.800811,-3701.029710,-78601.398095
10828.606756,4885.359217,6365.771101,-72472.634111
10828.610059,20725.766376,-2072.576638,-88867.077768
10828.613363,-14804.118840,-13027.624579,-87641.324971
10828.616666,-17024.736666,-1776.494261,-43054.566988
10828.619969,-6069.688724,32272.979071,14249.376263
10828.623272,-888.247130,29312.155303,-37691.898502
10828.626576,16136.489536,1924.535449,-155670.605194
10828.629879,6217.729913,-19393.395680,-162718.683775
10828.633182,2072.576638,-3849.070898,-127631.509967
10828.636485,23538.548956,18209.066173,-51328.398366
10828.639789,-1480.411884,21910.095883,-27272.999729
10828.643092,-11991.336260,9178.553681,-58836.134246
10828.646395,3849.070898,7698.141797,-85955.914876
10828.649698,-9770.718434,8882.471304,-73391.948708
10828.653002,8142.265362,17024.736666,-69101.813920
10828.656305,6661.853478,6069.688724,-96221.594549
10828.659608,-8290.306550,10807.006753,-93003.993457
10828.662911,2812.782580,16136.489536,-77069.207099
10828.666215,13619.789333,14952.160028,-73391.948708
10828.669518,148.041188,-4737.318029,-95149.060852
10828.672821,4293.194464,-18505.148550,-128857.262764
10828.676124,-3404.947333,-13915.871710,-84883.381178
10828.679428,-17616.901420,21317.931130,-16700.881856
10828.682731,-8142.265362,12731.542202,-50868.741067
10828.686034,-5329.482782,-5181.441594,-92697.555258
10828.689337,-16136.489536,-5033.400406,-78907.836294
10828.692641,-10658.965565,-8586.388927,-90399.268764
10828.695944,-11547.212695,-3849.070898,-76915.987999
10828.699247,-1628.453072,3552.988522,-75996.673402
10828.702551,-148.041188,592.164754,-87488.105872
10828.705818,9918.759623,-2960.823768,-86262.353075
10828.709086,21465.972318,-740.205942,-106640.493322
10828.712353,7994.224174,-6217.729913,-93770.088955
10828.715621,-16136.489536,11399.171507,-32482.449115
10828.718888,-11251.130318,42043.697506,9959.241474
10828.722156,-592.164754,18209.066173,-67263.184724
10828.725423,1776.494261,-16728.654289,-153985.195098
10828.728691,7846.182985,-2516.700203,-123954.251576
10828.731958,10807.006753,7254.018232,-110011.313513
10828.735226,-1924.535449,25315.043216,-56231.409553
10828.738493,2664.741391,13323.706956,-52554.151163
10828.741761,3849.070898,6069.688724,-70787.224015
10828.745029,-8882.471304,9474.636058,-70480.785816
10828.748296,7105.977043,27387.619854,-51328.398366
10828.751564,9030.512492,19985.560434,-48723.673673
10828.754831,-5773.606348,2220.617826,-89786.392366
10828.758099,-18357.107362,-11399.171507,-100205.291138
10828.761366,-11399.171507,8586.388927,-49489.769171
10828.764634,-4293.194464,13323.706956,-46425.387179
10828.767901,16876.695478,7105.977043,-61594.078039
10828.771169,1628.453072,-13175.665768,-134526.369449
10828.774436,-8290.306550,4885.359217,-95761.937250
10828.777704,3108.864956,15988.448347,-47804.359075
10828.780971,6069.688724,2812.782580,-59755.448844
10828.784239,-11251.130318,4293.194464,-80133.589091
10828.787507,-13323.706956,-6957.935855,-87488.105872
10828.790774,-29460.196492,-13471.748144,-79214.274493
10828.794042,-11251.130318,5329.482782,-49183.330972
10828.797309,-5625.565159,-6217.729913,-69561.471218
10828.800577,-18357.107362,5033.400406,-78601.398095
10828.803844,6217.729913,16728.654289,-98826.319242
10828.807112,41599.573940,18949.272115,-123801.032477
10828.810349,18801.230927,10807.006753,-140961.571632
10828.813587,16432.571912,5773.606348,-126252.538070
10828.816825,-5921.647536,4737.318029,-37079.022103
10828.820062,-17468.860231,23686.590144,5822.325785
10828.823300,888.247130,10066.800811,-55005.656756
10828.826538,1628.453072,-2960.823768,-113382.133704
10828.829775,-7846.182985,-3849.070898,-101890.701234
10828.833013,-1036.288319,9030.512492,-98979.538342
10828.836251,7105.977043,19541.436869,-82431.875585
10828.839488,15544.324782,22946.384202,-80899.684589
10828.842726,11843.295072,-1332.370696,-95915.156350
10828.845964,-12731.542202,11991.336260,-61287.639840
10828.849201,-9326.594869,16284.530724,-57150.724151
10828.852439,9474.636058,18209.066173,-49949.426470
10828.855677,-4737.318029,-19393.395680,-108785.560716
10828.858914,-17764.942608,-21021.848753,-105414.740525
10828.862152,-11843.295072,148.041188,-45659.291681
10828.865389,-14952.160028,20133.601622,-28498.752526
10828.868627,-8882.471304,14952.160028,-50409.083768
10828.871865,-2072.576638,-4293.194464,-95915.156350
10828.875102,-11399.171507,-3552.988522,-102350.358533
10828.878340,-2072.576638,6217.729913,-81206.122788
10828.881578,-6661.853478,5329.482782,-62819.830836
10828.884815,-6217.729913,-4589.276840,-75077.358804
10828.888053,-12731.542202,-1036.288319,-84576.942979
10828.891291,7994.224174,740.205942,-86415.572174
10828.894528,16432.571912,3256.906145,-92850.774358
10828.897766,13471.748144,444.123565,-91471.802461
10828.901004,-5477.523971,1184.329507,-59295.791545
10828.904241,-20429.683999,35825.967593,-7048.078582
10828.907479,-1924.535449,25463.084405,-47804.359075
10828.910717,-1628.453072,-444.123565,-62053.735338
10828.913929,5625.565159,-12435.459826,-130236.234660
10828.917142,13619.789333,1480.411884,-123801.032477
10828.920355,2368.659014,13767.830521,-79827.150892
10828.923568,-9178.553681,12139.377449,-40603.061394
10828.926781,2072.576638,17764.942608,-55005.656756
10828.929994,6365.771101,14656.077652,-56691.066852
10828.933207,-6217.729913,7994.224174,-66803.527426
10828.936420,-1036.288319,16876.695478,-60981.201641
10828.939633,7550.100608,10807.006753,-79061.055394
10828.942845,-5329.482782,-6513.812290,-106640.493322
10828.946058,-8882.471304,-30200.402434,-136211.779544
10828.949271,-18505.148550,-17764.942608,-84576.942979
10828.952484,-23094.425390,20725.766376,5209.449386
10828.955697,-6513.812290,17320.819043,-30490.600820
10828.958910,-8290.306550,-12435.459826,-111237.066310
10828.962123,-9030.512492,-1628.453072,-108172.684318
10828.965336,-7846.182985,-3108.864956,-94842.622652
10828.968549,-10362.883188,6513.812290,-63432.707234
10828.971761,-14508.036463,10955.047942,-49030.111872
10828.974974,6069.688724,-5625.565159,-80746.465489
10828.978187,-7994.224174,-3256.906145,-93463.650756
10828.981400,7402.059420,3108.864956,-85496.257577
10828.984613,6661.853478,-10658.965565,-81665.780087
10828.987826,10214.842000,148.041188,-94689.403553
10828.991039,-7994.224174,5181.441594,-59908.667944
10828.994252,-10955.047942,31828.855506,-12563.966167
10828.997465,-9918.759623,28127.825796,-40143.404095
10829.000677,2664.741391,-10066.800811,-130389.453760
10829.003890,6365.771101,-11251.130318,-148316.088413
10829.007103,5625.565159,444.123565,-131921.644756
10829.010316,888.247130,11695.253884,-78294.959896
10829.013529,1036.288319,13175.665768,-44893.196183
10829.016722,-7402.059420,18061.024985,-39836.965896
10829.019914,7846.182985,11103.089130,-62206.954438
10829.023107,2220.617826,296.082377,-69714.690318
10829.026299,-12287.418637,19541.436869,-64658.460031
10829.029492,13323.706956,13471.748144,-79520.712692
10829.032684,-1924.535449,-4589.276840,-110317.751712
10829.035877,-21169.889941,-24574.837274,-107866.246118
10829.039070,-13323.706956,-9770.718434,-30184.162621
10829.042262,-21910.095883,4737.318029,-7814.174080
10829.045455,-21910.095883,29608.237680,-153.219100
10829.048647,-4441.235652,-10214.842000,-88867.077768
10829.051840,-8734.430116,-11103.089130,-116906.172995
10829.055033,-7105.977043,10214.842000,-81972.218286
10829.058225,-3256.906145,14508.036463,-58223.257848
10829.061418,-13175.665768,3849.070898,-59602.229744
10829.064610,4441.235652,4293.194464,-67416.403824
10829.067803,-7550.100608,-11251.130318,-89939.611465
10829.070996,-7846.182985,8734.430116,-76762.768900
10829.074188,20281.642811,7994.224174,-80899.684589
10829.077381,17024.736666,-3849.070898,-102810.015832
10829.080573,-12879.583391,3849.070898,-83504.409282
10829.083766,-592.164754,10807.006753,-65424.555529
10829.086959,-13323.706956,19245.354492,-9039.926876
10829.090151,-13619.789333,12583.501014,-41675.595091
10829.093344,11251.130318,-8290.306550,-124260.689776
10829.096536,10510.924376,-6365.771101,-129776.577361
10829.099729,-1924.535449,-740.205942,-118591.583090
10829.102921,7550.100608,9918.759623,-83504.409282
10829.106114,4145.153275,17172.777854,-55158.875856
10829.109307,2072.576638,22206.178260,-57610.381450
10829.112499,9178.553681,4737.318029,-82431.875585
10829.115692,-18653.189738,12583.501014,-72319.415011
10829.118906,2368.659014,19985.560434,-58223.257848
10829.122121,12583.501014,21614.013506,-56691.066852
10829.125335,9326.594869,-14656.077652,-121962.403282
10829.128550,-2812.782580,-21614.013506,-142800.200827
10829.131764,-13471.748144,-8586.388927,-70940.443115
10829.134979,-14952.160028,28719.990550,-459.657299
10829.138193,592.164754,13619.789333,-20684.578446
10829.141408,-4441.235652,740.205942,-75996.673402
10829.144623,-8586.388927,-4589.276840,-102503.577632
10829.147837,-9622.677246,-6365.771101,-85649.476676
10829.151052,-29016.072926,-2960.823768,-62819.830836
10829.154266,-7105.977043,7402.059420,-57457.162350
10829.157481,2220.617826,-1776.494261,-62053.735338
10829.160695,-22502.260637,-9622.677246,-69561.471218
10829.163910,-16432.571912,11103.089130,-65271.336430
10829.167124,16728.654289,37454.420665,-57763.600549
10829.170339,19097.313304,16876.695478,-102197.139433
10829.173553,17172.777854,7846.182985,-128091.167266
10829.176768,2960.823768,-6809.894666,-124413.908875
10829.179982,1924.535449,14063.912898,-48723.673673
10829.183197,4441.235652,16876.695478,-28498.752526
10829.186411,3997.112087,11399.171507,-59295.791545
10829.189626,-2368.659014,5181.441594,-93157.212557
10829.192840,-5477.523971,3256.906145,-100205.291138
10829.196072,6217.729913,11695.253884,-88407.420469
10829.199304,1332.370696,9770.718434,-76762.768900
10829.202536,8290.306550,22354.219448,-63585.926334
10829.205768,740.205942,7254.018232,-86875.229473
10829.209000,-16580.613101,-12879.583391,-88867.077768
10829.212232,-34641.638086,-2664.741391,-45506.072581
10829.215464,-10214.842000,9622.677246,-22369.988542
10829.218696,-21021.848753,18949.272115,-17313.758255
10829.221929,-2812.782580,3404.947333,-107406.588820
10829.225161,444.123565,-8734.430116,-139735.818835
10829.228393,-5921.647536,11251.130318,-78448.178995
10829.231625,11399.171507,20133.601622,-43667.443386
10829.234857,-1332.370696,10066.800811,-55005.656756
10829.238089,-19393.395680,-4145.153275,-67876.061123
10829.241321,3552.988522,-2368.659014,-89479.954166
10829.244553,-11399.171507,-10362.883188,-85189.819378
10829.247785,-9326.594869,9030.512492,-58989.353346
10829.251017,20281.642811,7846.182985,-82891.532884
10829.254249,32124.937883,22058.137072,-101124.605736
10829.257481,5329.482782,1924.535449,-142187.324429
10829.260713,-1628.453072,6661.853478,-83810.847481
10829.263945,-10510.924376,22354.219448,-5669.106685
10829.267177,-8438.347739,11103.089130,-34780.735609
10829.270409,9326.594869,-8438.347739,-111083.847210
10829.273641,4145.153275,1480.411884,-103422.892230
10829.276873,3108.864956,5033.400406,-120123.774086
10829.280105,7254.018232,8734.430116,-95915.156350
10829.283337,7550.100608,14952.160028,-72625.853210
10829.286569,6661.853478,22206.178260,-54699.218557
10829.289801,6809.894666,15248.242405,-60981.201641
10829.293033,-10066.800811,2960.823768,-63739.145434
10829.296265,-35233.802839,2664.741391,-49949.426470
10829.299474,-6661.853478,16432.571912,-37079.022103
10829.302683,7846.182985,-296.082377,-94076.527154
10829.305892,18949.272115,-15544.324782,-161952.588277
10829.309101,-4441.235652,-11251.130318,-121502.745983
10829.312311,-740.205942,14508.036463,-86875.229473
10829.315520,12435.459826,20133.601622,-22369.988542
10829.318729,-296.082377,12731.542202,-53167.027561
10829.321938,-6513.812290,-4737.318029,-102656.796732
10829.325147,-19985.560434,-15692.365970,-100664.948437
10829.328356,-5181.441594,-7846.182985,-86415.572174
10829.331565,-10658.965565,296.082377,-60827.982541
10829.334774,-444.123565,15988.448347,-64964.898230
10829.337983,22206.178260,-3108.864956,-122268.841481
10829.341192,5181.441594,-17468.860231,-134066.712150
10829.344401,-11695.253884,6661.853478,-53013.808462
10829.347610,-11547.212695,47373.180288,27732.657028
10829.350819,-8142.265362,37898.544230,23289.303139
10829.354028,-4293.194464,-3997.112087,-68182.499322
10829.357237,6069.688724,-10658.965565,-144638.830022
10829.360446,20725.766376,6513.812290,-115067.543800
10829.363656,7105.977043,15544.324782,-57457.162350
10829.366865,-8290.306550,15248.242405,-44280.319784
10829.370074,6809.894666,14656.077652,-63892.364533
10829.373283,-1776.494261,15692.365970,-55618.533155
10829.376492,1628.453072,15396.283594,-56537.847752
10829.379701,-11251.130318,12435.459826,-69561.471218
10829.382910,-17468.860231,10066.800811,-77682.083497
10829.386119,-10658.965565,14656.077652,-52094.493864
10829.389328,13471.748144,-4145.153275,-102043.920334
10829.392537,11399.171507,-11251.130318,-146630.678317
10829.395746,-888.247130,-6513.812290,-108938.779816
10829.398955,-6809.894666,20725.766376,-21144.235745
10829.402189,-8734.430116,6069.688724,-32176.010916
10829.405418,1332.370696,10066.800811,-61287.639840
10829.408647,-10214.842000,-6661.853478,-93770.088955
10829.411875,-31532.773129,-13915.871710,-82278.656485
10829.415104,-12139.377449,3404.947333,-59449.010645
10829.418332,1184.329507,1924.535449,-79367.493593
10829.421561,4145.153275,1628.453072,-112769.257306
10829.424789,25611.125593,-1036.288319,-136671.436843
10829.428018,27387.619854,-11103.089130,-142340.543528
10829.431246,-12435.459826,9474.636058,-67876.061123
10829.434475,-2368.659014,41895.656317,16854.100956
10829.437704,-9474.636058,22206.178260,-16394.443657
10829.440932,-7994.224174,-18061.024985,-117059.392094
10829.444161,0.000000,-6957.935855,-117519.049393
10829.447389,11399.171507,444.123565,-105874.397824
10829.450618,5477.523971,13767.830521,-75843.454302
10829.453846,1776.494261,15100.201217,-75843.454302
10829.457075,3256.906145,11695.253884,-73545.167808
10829.460303,-3256.906145,18949.272115,-51175.179266
10829.463532,15248.242405,18653.189738,-47191.482677
10829.466761,-7698.141797,10066.800811,-58836.134246
10829.469989,-35381.844028,-4441.235652,-64045.583633
10829.473218,-12139.377449,10807.006753,-50102.645569
10829.476446,3997.112087,148.041188,-78294.959896
10829.479675,19985.560434,-10066.800811,-140655.133433
10829.482903,6513.812290,-13471.748144,-160573.616381
10829.486132,-5033.400406,6661.853478,-97294.128246
10829.489360,3256.906145,22798.343014,-24208.617737
10829.492589,3552.988522,12139.377449,-44280.319784
10829.495818,-11695.253884,-2220.617826,-101431.043935
10829.499046,-21021.848753,-14656.077652,-110317.751712
10829.502275,-10807.006753,-2812.782580,-88254.201370
10829.505520,-13471.748144,-6957.935855,-59755.448844
10829.508764,-11843.295072,10807.006753,-51175.179266
10829.512009,13175.665768,16136.489536,-96374.813648
10829.515254,37750.503042,5181.441594,-148316.088413
10829.518499,24130.713709,5181.441594,-174516.554444
10829.521744,18209.066173,-1332.370696,-127478.290867
10829.524989,-8142.265362,18949.272115,-3830.477490
10829.528234,-12435.459826,16728.654289,1991.848295
10829.531479,-2960.823768,4589.276840,-88254.201370
10829.534723,9918.759623,-3108.864956,-126099.318971
10829.537968,9918.759623,-2812.782580,-116446.515696
10829.541213,1332.370696,6069.688724,-109245.218015
10829.544458,16580.613101,21465.972318,-75230.577904
10829.547703,2220.617826,5921.647536,-61287.639840
10829.550948,-8586.388927,18209.066173,-50255.864669
10829.554193,9326.594869,13767.830521,-64045.583633
10829.557437,2220.617826,-296.082377,-79827.150892
10829.560682,-25018.960840,-30200.402434,-101124.605736
10829.563927,-20725.766376,-15988.448347,-56078.190454
10829.567172,-12879.583391,25167.002028,-15015.471761
10829.570417,-8882.471304,12879.583391,-76303.111601
10829.573662,-444.123565,-7846.182985,-130849.111058
10829.576907,-8290.306550,7550.100608,-96068.375449
10829.580152,-7402.059420,10362.883188,-73085.510509
10829.583396,-4441.235652,13767.830521,-50715.521968
10829.586641,-3256.906145,-5033.400406,-73851.606007
10829.589886,-10807.006753,-3849.070898,-81818.999186
10829.593131,8290.306550,-12139.377449,-78601.398095
10829.596376,-6513.812290,-14952.160028,-80899.684589
10829.599621,-33161.226202,1628.453072,-35240.392908
10829.602866,-148.041188,30940.608376,4596.572988
10829.606110,2812.782580,31088.649564,-47191.482677
10829.609369,7846.182985,3849.070898,-151993.346803
10829.612627,6957.935855,-15692.365970,-148469.307512
10829.615886,4589.276840,-296.082377,-115527.201098
10829.619144,13767.830521,22946.384202,-49489.769171
10829.622402,8142.265362,9178.553681,-45659.291681
10829.625661,-13175.665768,9326.594869,-63892.364533
10829.628919,592.164754,12139.377449,-70787.224015
10829.632178,5477.523971,17764.942608,-62819.830836
10829.635436,6365.771101,17024.736666,-53933.123059
10829.638694,-9770.718434,6513.812290,-81972.218286
10829.641953,-24426.796086,296.082377,-86875.229473
10829.645211,1184.329507,13915.871710,-61594.078039
10829.648470,7550.100608,-4145.153275,-96987.690047
10829.651728,9770.718434,-18505.148550,-137743.970540
10829.654986,-6661.853478,-6957.935855,-140042.257034
10829.658245,-6217.729913,11695.253884,-57916.819649
10829.661503,1776.494261,9178.553681,-28039.095227
10829.664761,-9622.677246,8882.471304,-64198.802732
10829.668020,-5625.565159,-8882.471304,-102197.139433
10829.671278,-29608.237680,-16876.695478,-86875.229473
10829.674537,-22502.260637,740.205942,-62819.830836
10829.677795,-13767.830521,-2516.700203,-50255.864669
10829.681053,-15692.365970,8734.430116,-59908.667944
10829.684312,9770.718434,14508.036463,-104955.083226
10829.687570,42931.944636,13027.624579,-144638.830022
10829.690829,9474.636058,11251.130318,-131002.330158
10829.694087,15544.324782,8586.388927,-122422.060580
10829.697345,6957.935855,14063.912898,-30797.039020
10829.700604,-9178.553681,10955.047942,-7354.516781
10829.703862,-11251.130318,11103.089130,-60674.763442
10829.707121,4293.194464,-1480.411884,-105108.302326
10829.710379,-1036.288319,1036.288319,-106487.274222
10829.713610,-3997.112087,9918.759623,-94076.527154
10829.716841,24870.919651,14804.118840,-99132.757441
10829.720072,3849.070898,8142.265362,-98519.881043
10829.723303,-4293.194464,18209.066173,-72472.634111
10829.726534,13323.706956,14656.077652,-62819.830836
10829.729765,8142.265362,13323.706956,-62360.173537
10829.732996,-1036.288319,-17320.819043,-96834.470947
10829.736227,-11251.130318,-25759.166782,-110317.751712
10829.739458,-21910.095883,1332.370696,-49796.207370
10829.742689,-8586.388927,25611.125593,-17313.758255
10829.745919,-13027.624579,296.082377,-82278.656485
10829.749150,-16136.489536,-1924.535449,-83351.190182
10829.752381,-5625.565159,-2812.782580,-102197.139433
10829.755612,-7550.100608,-8586.388927,-88254.201370
10829.758843,-4293.194464,13175.665768,-73085.510509
10829.762074,-7550.100608,-3256.906145,-83044.751983
10829.765305,-4885.359217,4589.276840,-63432.707234
10829.768536,1332.370696,23538.548956,-63279.488135
10829.771767,39230.914926,23390.507767,-96834.470947
10829.774998,5477.523971,4737.318029,-127937.948166
10829.778229,-7994.224174,15248.242405,-70787.224015
10829.781460,-2960.823768,18801.230927,-10418.898773
10829.784691,-9030.512492,4737.318029,-43667.443386
10829.787922,-9622.677246,14952.160028,-55618.533155
10829.791153,444.123565,-2516.700203,-104188.987728
10829.794384,6957.935855,-2664.741391,-116906.172995
10829.797615,7402.059420,15100.201217,-93463.650756
10829.800846,16580.613101,18653.189738,-73698.386908
10829.804077,-4737.318029,7846.182985,-61900.516238
10829.807308,-14508.036463,16728.654289,-61287.639840
10829.810539,6069.688724,18357.107362,-55771.752254
10829.813770,4145.153275,10955.047942,-77069.207099
10829.816978,-5033.400406,-31236.690752,-129470.139162
10829.820186,-14508.036463,-28275.866984,-104035.768628
10829.823395,-18505.148550,-7550.100608,-77222.426198
10829.826603,-10362.883188,29608.237680,612.876398
10829.829811,-10807.006753,1332.370696,-48417.235474
10829.833020,-9474.636058,-8586.388927,-103729.330429
10829.836228,-7846.182985,-2516.700203,-99745.633840
10829.839436,-12583.501014,-2664.741391,-69408.252119
10829.842645,-14804.118840,9326.594869,-58836.134246
10829.845853,-7402.059420,-2368.659014,-69255.033019
10829.849061,-6217.729913,592.164754,-73545.167808
10829.852270,15692.365970,15396.283594,-88100.982270
10829.855478,37454.420665,10214.842000,-117519.049393
10829.858686,-1480.411884,6365.771101,-111543.504509
10829.861894,9178.553681,9030.512492,-94689.403553
10829.865103,-2220.617826,15396.283594,-18233.072852
10829.868311,-6365.771101,7402.059420,-28651.971625
10829.871519,-6365.771101,3404.947333,-88254.201370
10829.874728,3108.864956,-3256.906145,-110470.970812
10829.877936,-5181.441594,6365.771101,-92850.774358
10829.881144,-1184.329507,11399.171507,-77222.426198
10829.884353,16580.613101,21614.013506,-74770.920605
10829.887561,1924.535449,10807.006753,-95761.937250
10829.890769,1628.453072,13619.789333,-90858.926063
10829.893978,3552.988522,14804.118840,-69101.813920
10829.897186,-1628.453072,14063.912898,-63739.145434
10829.900394,2664.741391,-6809.894666,-85802.695776
10829.903603,-4737.318029,-24574.837274,-115373.981999
10829.906811,-19245.354492,-6365.771101,-75843.454302
10829.910019,-9918.759623,25759.166782,-15015.471761
10829.913228,-12879.583391,8290.306550,-56691.066852
10829.916436,-4441.235652,-3108.864956,-102656.796732
10829.919664,-8438.347739,-7105.977043,-97600.566445
10829.922893,-13471.748144,-16136.489536,-94229.746254
10829.926121,-9770.718434,12731.542202,-64505.240932
10829.929349,888.247130,-3404.947333,-76303.111601
10829.932577,-16432.571912,-3404.947333,-75690.235202
10829.935806,-13619.789333,9770.718434,-53167.027561
10829.939034,15840.407159,33161.226202,-43054.566988
10829.942262,15988.448347,20133.601622,-99898.852939
10829.945490,14952.160028,10066.800811,-134832.807648
10829.948719,1184.329507,2072.576638,-86415.572174
10829.951947,-2072.576638,11103.089130,-29724.505322
10829.955175,2220.617826,21317.931130,-29571.286223
10829.958404,-1776.494261,8734.430116,-43514.224286
10829.961632,-5477.523971,-888.247130,-90552.487864
10829.964860,-1628.453072,5921.647536,-104035.768628
10829.968088,1776.494261,14804.118840,-68948.594820
10829.971317,6661.853478,22354.219448,-65271.336430
10829.974545,2220.617826,13767.830521,-81665.780087
10829.977773,-19097.313304,-8438.347739,-95302.279951
10829.981001,-25611.125593,3404.947333,-48417.235474
10829.984230,-444.123565,7698.141797,-35393.612008
10829.987458,15988.448347,-10362.883188,-108172.684318
10829.990686,-7994.224174,-15396.283594,-147549.992915
10829.993915,-6365.771101,-148.041188,-123954.251576
10829.997143,-5773.606348,13323.706956,-46578.606278
10830.000371,148.041188,19689.478057,-36925.803004
10830.003599,-10214.842000,-9326.594869,-89326.735067
10830.006828,-18653.189738,-15840.407159,-96221.594549
10830.010056,-18209.066173,6069.688724,-53167.027561
10830.013284,5773.606348,11399.171507,-53320.246661
10830.016512,10066.800811,-13027.624579,-98519.881043
10830.019741,-22946.384202,-8438.347739,-99439.195640
10830.022947,-4737.318029,19689.478057,-25894.027832
10830.026154,296.082377,43228.027013,-11797.870669
10830.029360,-7402.059420,30644.525999,-32635.668215
10830.032567,11251.130318,-17172.777854,-125639.661672
10830.035773,-3108.864956,-5033.400406,-117825.487592
10830.038980,5329.482782,25759.166782,-54545.999458
10830.042186,7550.100608,14656.077652,-52707.370262
10830.045393,-3849.070898,7105.977043,-77069.207099
10830.048599,9326.594869,18801.230927,-85649.476676
10830.051806,4441.235652,7105.977043,-79673.931792
10830.055012,-2516.700203,19985.560434,-60215.106143
10830.058219,14211.954086,16284.530724,-73545.167808
10830.061425,-1184.329507,-2960.823768,-101890.701234
10830.064632,-29312.155303,-29608.237680,-93157.212557
10830.067838,-17320.819043,-24426.796086,-89479.954166
10830.071045,-21762.054695,11399.171507,-12563.966167
10830.074251,-15100.201217,26055.249158,-19612.044749
10830.077458,-4885.359217,-14508.036463,-105721.178724
10830.080664,-14952.160028,-18357.107362,-127478.290867
10830.083871,-12435.459826,-9622.677246,-110930.628110
10830.087077,-8142.265362,-4145.153275,-62973.049936
10830.090284,-8142.265362,17616.901420,-47344.701776
10830.093490,-10658.965565,-11103.089130,-86568.791274
10830.096697,-14952.160028,-148.041188,-73085.510509
10830.099885,7994.224174,22354.219448,-57457.162350
10830.103073,10955.047942,36418.132346,-48723.673673
10830.106261,23242.466579,19541.436869,-113688.571903
10830.109449,13471.748144,3256.906145,-137131.094142
10830.112637,-3701.029710,10066.800811,-68029.280222
10830.115825,5625.565159,17468.860231,-19305.606550
10830.119013,-5477.523971,7994.224174,-53013.808462
10830.122201,-6661.853478,6365.771101,-59295.791545
10830.125389,-1924.535449,1036.288319,-93310.431656
10830.128577,2072.576638,7846.182985,-93157.212557
10830.131765,-6069.688724,13915.871710,-69561.471218
10830.134953,6661.853478,21317.931130,-60674.763442
10830.138141,6809.894666,12731.542202,-73238.729609
10830.141329,-5329.482782,-11103.089130,-97294.128246
10830.144517,-41599.573940,-16876.695478,-73545.167808
10830.147705,-16136.489536,3552.988522,-22063.550342
10830.150893,4441.235652,13027.624579,-40296.623195
10830.154081,2516.700203,-10510.924376,-141268.009831
10830.157269,-3997.112087,-12879.583391,-146783.897417
10830.160457,-10362.883188,8290.306550,-104955.083226
10830.163645,8882.471304,26943.496289,-46118.948980
10830.166833,-5773.606348,-148.041188,-59602.229744
10830.170021,-888.247130,-8290.306550,-83351.190182
10830.173209,-22798.343014,-12287.418637,-87334.886772
10830.176397,-17172.777854,5329.482782,-64045.583633
10830.179585,18209.066173,18209.066173,-60674.763442
10830.182773,23242.466579,9474.636058,-99745.633840
10830.185961,-888.247130,5625.565159,-133300.616652
10830.189149,1036.288319,12879.583391,-79520.712692
10830.192337,-10807.006753,21465.972318,-13636.499864
10830.195525,2516.700203,13175.665768,-26506.904231
10830.198713,-6513.812290,9622.677246,-59449.010645
10830.201887,-7402.059420,4589.276840,-93923.308055
10830.205061,-3256.906145,-4441.235652,-104648.645027
10830.208235,10362.883188,20725.766376,-86415.572174
10830.211408,14656.077652,23834.631332,-71246.881314
10830.214582,12139.377449,21169.889941,-71246.881314
10830.217756,8586.388927,1924.535449,-86415.572174
10830.220930,-36122.049970,-5329.482782,-62819.830836
10830.224104,-15396.283594,19689.478057,-20071.702048
10830.227278,1332.370696,6513.812290,-49336.550071
10830.230452,6217.729913,6513.812290,-61747.297139
10830.233626,7846.182985,-21021.848753,-172218.267950
10830.236800,-2220.617826,6957.935855,-117212.611194
10830.239974,-12583.501014,26055.249158,-24974.713235
10830.243148,7846.182985,19985.560434,-37845.117601
10830.246322,-8882.471304,-14211.954086,-99745.633840
10830.249496,-9770.718434,-19097.313304,-108325.903417
10830.252670,-21910.095883,-9030.512492,-91778.240660
10830.255844,-7698.141797,12879.583391,-52554.151163
10830.259018,23834.631332,6809.894666,-89479.954166
10830.262192,15396.283594,-6957.935855,-132687.740254
10830.265366,-8586.388927,1184.329507,-89173.515967
10830.268540,-8290.306550,37454.420665,-5669.106685
10830.271714,-2368.659014,26055.249158,-12717.185267
10830.274888,-5477.523971,4145.153275,-61287.639840
10830.278062,888.247130,-2960.823768,-111696.723608
10830.281236,5033.400406,888.247130,-92544.336158
10830.284410,-4885.359217,14656.077652,-61747.297139
10830.287584,11251.130318,19541.436869,-67569.622924
10830.290758,296.082377,16284.530724,-68335.718422
10830.293932,-2072.576638,17172.777854,-63585.926334
10830.297105,9622.677246,9178.553681,-81052.903688
10830.300279,-25018.960840,3108.864956,-73851.606007
