#time,accel_x,accel_y,accel_z
1392.909064,-1184.329507,3701.029710,-77375.645298
1392.911506,2072.576638,2664.741391,-75843.454302
1392.913947,10510.924376,-888.247130,-73698.386908
1392.916388,-5773.606348,-4145.153275,-67722.842023
1392.918830,6217.729913,-1924.535449,-75230.577904
1392.921271,3849.070898,2664.741391,-77528.864398
1392.923712,8290.306550,3404.947333,-74311.263306
1392.926154,5625.565159,-1628.453072,-75843.454302
1392.928595,-1628.453072,10955.047942,-71246.881314
1392.931103,740.205942,-592.164754,-74158.044206
1392.933611,-4145.153275,-2812.782580,-78294.959896
1392.936119,-2516.700203,7402.059420,-71859.757712
1392.938628,-3849.070898,1776.494261,-76762.768900
1392.941136,1776.494261,6069.688724,-78754.617194
1392.943644,-8142.265362,14952.160028,-68642.156621
1392.946152,-10362.883188,6069.688724,-77222.426198
1392.948660,1036.288319,5181.441594,-78294.959896
1392.951168,3108.864956,3552.988522,-76456.330700
1392.953676,-3256.906145,-1036.288319,-74158.044206
1392.956184,-3849.070898,3849.070898,-74158.044206
1392.958693,-13471.748144,9326.594869,-75230.577904
1392.961201,-4737.318029,9770.718434,-77835.302597
1392.963709,-1628.453072,9622.677246,-72779.072310
1392.966217,-4885.359217,3108.864956,-74158.044206
1392.968725,1924.535449,2220.617826,-75077.358804
1392.971233,-9474.636058,7254.018232,-76149.892501
1392.973741,-6809.894666,4589.276840,-75383.797003
1392.976249,2960.823768,-3404.947333,-77988.521696
1392.978757,-3849.070898,4145.153275,-74464.482406
1392.981266,-5329.482782,7846.182985,-73238.729609
1392.983774,-6957.935855,10066.800811,-77222.426198
1392.986282,-10362.883188,8586.388927,-75690.235202
1392.988790,7846.182985,2664.741391,-73698.386908
1392.991298,-4293.194464,7254.018232,-70174.347617
1392.993806,-9326.594869,9178.553681,-73391.948708
1392.996314,-8734.430116,7402.059420,-74617.701505
1392.998822,-7994.224174,2664.741391,-76762.768900
1393.001331,5477.523971,4293.194464,-73851.606007
1393.003839,-2220.617826,7846.182985,-70480.785816
1393.006347,1480.411884,6661.853478,-77528.864398
1393.008855,-8438.347739,6217.729913,-74770.920605
1393.011363,-14211.954086,12731.542202,-70787.224015
1393.013871,-4441.235652,2960.823768,-70940.443115
1393.016379,20133.601622,444.123565,-81359.341888
1393.018887,2812.782580,19393.395680,-68795.375720
1393.021395,-18061.024985,6661.853478,-70327.566716
1393.023904,10066.800811,-20429.683999,-85649.476676
1393.026412,-18061.024985,21169.889941,-61594.078039
1393.028920,13027.624579,-13619.789333,-87181.667672
1393.031471,1036.288319,-7550.100608,-87947.763170
1393.034021,-16728.654289,17468.860231,-70021.128517
1393.036572,-888.247130,-2516.700203,-82585.094684
1393.039123,3256.906145,-1332.370696,-74004.825107
1393.041673,-296.082377,2960.823768,-67876.061123
1393.044224,6957.935855,-4145.153275,-78294.959896
1393.046775,-888.247130,3849.070898,-75077.358804
1393.049326,-7994.224174,4589.276840,-72932.291410
1393.051876,1776.494261,592.164754,-75996.673402
1393.054427,9770.718434,444.123565,-75996.673402
1393.056978,-6809.894666,8586.388927,-73238.729609
1393.059529,5625.565159,-2960.823768,-80440.027290
1393.062079,-8586.388927,-888.247130,-73238.729609
1393.064630,-296.082377,3256.906145,-74158.044206
1393.067181,3256.906145,-740.205942,-81818.999186
1393.069731,-11251.130318,2516.700203,-80286.808190
1393.072282,-5329.482782,4293.194464,-77682.083497
1393.074833,-3701.029710,-888.247130,-79061.055394
1393.077384,3256.906145,-444.123565,-77375.645298
1393.079934,12731.542202,148.041188,-76456.330700
1393.082485,-15988.448347,3256.906145,-77069.207099
1393.085036,1628.453072,-2220.617826,-80286.808190
1393.087587,-3552.988522,3997.112087,-71246.881314
1393.090137,-2960.823768,-3404.947333,-70634.004916
1393.092688,2368.659014,444.123565,-77988.521696
1393.095239,1924.535449,296.082377,-81359.341888
1393.097790,-3404.947333,592.164754,-75230.577904
1393.100340,1628.453072,-444.123565,-74770.920605
1393.102891,-11103.089130,3404.947333,-72779.072310
1393.105442,11695.253884,1332.370696,-77069.207099
1393.107992,-3701.029710,2220.617826,-74004.825107
1393.110543,5921.647536,1036.288319,-77988.521696
1393.113094,-14359.995275,13767.830521,-66497.089226
1393.115645,12879.583391,-14063.912898,-83197.971083
1393.118195,-7550.100608,12139.377449,-70327.566716
1393.120746,-21317.931130,15544.324782,-73851.606007
1393.123297,13323.706956,-9622.677246,-89479.954166
1393.125848,-26499.372724,25167.002028,-63585.926334
1393.128398,-23094.425390,14804.118840,-68488.937521
1393.130949,12583.501014,-10214.842000,-92697.555258
1393.133528,-11547.212695,11103.089130,-72472.634111
1393.136107,-8734.430116,-296.082377,-77069.207099
1393.138686,7550.100608,-3404.947333,-78294.959896
1393.141265,-15840.407159,16284.530724,-68488.937521
1393.143844,-1924.535449,10066.800811,-74924.139704
1393.146423,3849.070898,4589.276840,-77835.302597
1393.149002,-11103.089130,14063.912898,-67722.842023
1393.151580,4589.276840,1036.288319,-74770.920605
1393.154159,0.000000,1332.370696,-77375.645298
1393.156738,-17468.860231,9474.636058,-71246.881314
1393.159317,-4885.359217,444.123565,-77222.426198
1393.161896,-8290.306550,11399.171507,-78141.740796
1393.164475,-3997.112087,5477.523971,-72779.072310
1393.167054,3849.070898,4885.359217,-73545.167808
1393.169633,-7994.224174,5033.400406,-75690.235202
1393.172212,444.123565,4441.235652,-74770.920605
1393.174791,-9770.718434,6809.894666,-73238.729609
1393.177370,-10510.924376,4441.235652,-74464.482406
1393.179949,6957.935855,4441.235652,-76149.892501
1393.182528,-7402.059420,9770.718434,-74158.044206
1393.185107,3849.070898,4737.318029,-75690.235202
1393.187686,-7994.224174,8142.265362,-72625.853210
1393.190264,-5773.606348,5477.523971,-74004.825107
1393.192843,-5477.523971,3849.070898,-75996.673402
1393.195422,-1332.370696,10510.924376,-72625.853210
1393.198001,2220.617826,5921.647536,-71093.662214
1393.200580,-3108.864956,2072.576638,-74617.701505
1393.203159,-14508.036463,2072.576638,-74924.139704
1393.205738,-1036.288319,11695.253884,-72932.291410
1393.208317,-11251.130318,10066.800811,-71553.319513
1393.210896,10510.924376,-592.164754,-80746.465489
1393.213475,-15988.448347,22798.343014,-63279.488135
1393.216054,-5033.400406,-9622.677246,-84883.381178
1393.218633,19245.354492,-15248.242405,-87794.544071
1393.221212,-31828.855506,14359.995275,-62360.173537
1393.223791,20577.725188,-21169.889941,-89173.515967
1393.226370,740.205942,8586.388927,-68795.375720
1393.228948,-5625.565159,3256.906145,-78294.959896
1393.231527,3997.112087,-1332.370696,-80746.465489
1393.234106,-3552.988522,7698.141797,-71246.881314
1393.236700,-4293.194464,2812.782580,-70021.128517
1393.239294,11843.295072,-3552.988522,-74924.139704
1393.241888,-4293.194464,2368.659014,-75996.673402
1393.244482,-9030.512492,8734.430116,-71859.757712
1393.247076,-1036.288319,-1480.411884,-79827.150892
1393.249670,-3256.906145,888.247130,-78754.617194
1393.252264,1776.494261,5477.523971,-73698.386908
1393.254858,-1184.329507,-888.247130,-81359.341888
1393.257452,-6957.935855,3552.988522,-74617.701505
1393.260046,592.164754,-1628.453072,-75843.454302
1393.262640,-4145.153275,3256.906145,-77222.426198
1393.265234,-1332.370696,5329.482782,-74617.701505
1393.267828,-3404.947333,1332.370696,-77682.083497
1393.270422,-3849.070898,-1036.288319,-78141.740796
1393.273016,8290.306550,-2072.576638,-79673.931792
1393.275610,-8882.471304,6069.688724,-71859.757712
1393.278204,-2812.782580,-2072.576638,-74617.701505
1393.280798,1184.329507,-3256.906145,-75843.454302
1393.283392,-5033.400406,1628.453072,-76303.111601
1393.285986,2516.700203,148.041188,-78907.836294
1393.288580,2960.823768,2664.741391,-73851.606007
1393.291174,-3997.112087,3849.070898,-74311.263306
1393.293768,5773.606348,-5625.565159,-81206.122788
1393.296362,-14508.036463,10362.883188,-72319.415011
1393.298956,11399.171507,-296.082377,-75690.235202
1393.301550,-9918.759623,1480.411884,-77835.302597
1393.304144,6809.894666,1036.288319,-79673.931792
1393.306738,-7105.977043,9178.553681,-75537.016103
1393.309332,-20577.725188,0.000000,-74924.139704
1393.311926,16876.695478,-9178.553681,-84117.285680
1393.314520,-19985.560434,24870.919651,-64045.583633
1393.317114,-7402.059420,1184.329507,-74924.139704
1393.319708,20133.601622,2812.782580,-77069.207099
1393.322302,-34789.679274,31680.814318,-56537.847752
1393.324896,10955.047942,-11695.253884,-89479.954166
1393.327490,1480.411884,7550.100608,-70634.004916
1393.330083,-18209.066173,5625.565159,-77682.083497
1393.332677,6365.771101,-7105.977043,-83810.847481
1393.335271,-15988.448347,10658.965565,-75383.797003
1393.337865,-16136.489536,15248.242405,-71553.319513
1393.340469,4441.235652,2960.823768,-81206.122788
1393.343073,-6661.853478,13619.789333,-79214.274493
1393.345676,-7254.018232,8882.471304,-71553.319513
1393.348280,-1776.494261,-5033.400406,-78601.398095
1393.350884,-11547.212695,7105.977043,-75537.016103
1393.353487,444.123565,6661.853478,-74004.825107
1393.356091,296.082377,4885.359217,-74311.263306
1393.358694,-2072.576638,6069.688724,-75843.454302
1393.361298,-888.247130,5033.400406,-74770.920605
1393.363902,-13027.624579,4885.359217,-75230.577904
1393.366505,-7105.977043,6661.853478,-73698.386908
1393.369109,-148.041188,8586.388927,-74311.263306
1393.371712,-4441.235652,10362.883188,-75537.016103
1393.374316,-1628.453072,2072.576638,-79214.274493
1393.376920,-14211.954086,10807.006753,-72472.634111
1393.379523,-4441.235652,6809.894666,-73545.167808
1393.382127,-7105.977043,2516.700203,-75996.673402
1393.384731,-1332.370696,4441.235652,-75383.797003
1393.387334,-296.082377,5181.441594,-74464.482406
1393.389938,-8882.471304,5329.482782,-74924.139704
1393.392541,-3997.112087,7105.977043,-73085.510509
1393.395145,-9622.677246,11991.336260,-71553.319513
1393.397749,-11547.212695,5921.647536,-73545.167808
1393.400352,16136.489536,1184.329507,-81972.218286
1393.402956,-27979.784608,18653.189738,-67876.061123
1393.405559,14359.995275,-18801.230927,-88407.420469
1393.408163,6513.812290,-7254.018232,-80899.684589
1393.410767,-27239.578666,8734.430116,-73391.948708
1393.413370,30792.567187,-18209.066173,-87334.886772
1393.415974,-16284.530724,23834.631332,-55924.971354
1393.418578,-15396.283594,11991.336260,-70174.347617
1393.421181,9474.636058,-7254.018232,-82125.437386
1393.423785,2664.741391,6661.853478,-72625.853210
1393.426388,-5625.565159,7698.141797,-68335.718422
1393.428992,5181.441594,-7550.100608,-78448.178995
1393.431596,-1332.370696,6217.729913,-73391.948708
1393.434199,-4293.194464,3849.070898,-74158.044206
1393.436803,-2664.741391,-1924.535449,-80286.808190
1393.439406,-3849.070898,9178.553681,-72932.291410
1393.442010,3552.988522,3997.112087,-73545.167808
1393.444620,3552.988522,-3849.070898,-80593.246390
1393.447229,-4145.153275,-296.082377,-74311.263306
1393.449839,-3404.947333,8882.471304,-72166.195912
1393.452449,-1036.288319,5329.482782,-72625.853210
1393.455058,-444.123565,-1924.535449,-78907.836294
1393.457668,-2516.700203,5033.400406,-73085.510509
1393.460277,3256.906145,2368.659014,-74770.920605
1393.462887,4293.194464,-4145.153275,-75690.235202
1393.465496,1332.370696,2220.617826,-72166.195912
1393.468106,2368.659014,740.205942,-74770.920605
1393.470716,-6365.771101,1480.411884,-76915.987999
1393.473325,-3108.864956,6069.688724,-72012.976812
1393.475935,8734.430116,-3404.947333,-75383.797003
1393.478544,-1776.494261,7550.100608,-72932.291410
1393.481154,3108.864956,148.041188,-74617.701505
1393.483764,-11399.171507,1036.288319,-77835.302597
1393.486373,-444.123565,2220.617826,-74770.920605
1393.488983,-2220.617826,8586.388927,-76149.892501
1393.491592,-7105.977043,3701.029710,-73391.948708
1393.494202,11991.336260,-2516.700203,-80746.465489
1393.496812,-26647.413912,7550.100608,-70327.566716
1393.499421,6513.812290,-11399.171507,-86875.229473
1393.502031,-1924.535449,16136.489536,-68795.375720
1393.504640,-20429.683999,10066.800811,-71246.881314
1393.507250,25611.125593,-1184.329507,-83657.628382
1393.509860,-25463.084405,26647.413912,-62513.392637
1393.512469,-1776.494261,-740.205942,-79520.712692
1393.515079,10066.800811,-4737.318029,-74464.482406
1393.517688,-17172.777854,13471.748144,-69255.033019
1393.520298,4589.276840,-4441.235652,-81818.999186
1393.522907,-4441.235652,6365.771101,-74617.701505
1393.525517,-18505.148550,13471.748144,-71859.757712
1393.528128,-2812.782580,8438.347739,-76149.892501
1393.530739,1480.411884,1776.494261,-79673.931792
1393.533350,-5033.400406,7994.224174,-72625.853210
1393.535961,-2812.782580,1628.453072,-74924.139704
1393.538572,-12435.459826,888.247130,-78907.836294
1393.541184,-2812.782580,7994.224174,-72319.415011
1393.543795,3256.906145,7402.059420,-72779.072310
1393.546406,-1480.411884,5329.482782,-75383.797003
1393.549017,-1924.535449,4145.153275,-73545.167808
1393.551628,-12435.459826,5625.565159,-74770.920605
1393.554239,0.000000,9326.594869,-73391.948708
1393.556850,-5773.606348,10955.047942,-72319.415011
1393.559461,-8142.265362,8290.306550,-74004.825107
1393.562072,-1184.329507,8438.347739,-74770.920605
1393.564683,-5773.606348,7402.059420,-71706.538613
1393.567294,-12583.501014,10807.006753,-72012.976812
1393.569906,3552.988522,-3256.906145,-78601.398095
1393.572517,-4737.318029,2220.617826,-74617.701505
1393.575128,-7254.018232,12583.501014,-68335.718422
1393.577739,-7105.977043,5773.606348,-75077.358804
1393.580350,888.247130,12583.501014,-75230.577904
1393.582961,-15100.201217,9474.636058,-71093.662214
1393.585572,8142.265362,-1628.453072,-80899.684589
1393.588183,-13175.665768,19985.560434,-65424.555529
1393.590794,740.205942,-14804.118840,-84730.162079
1393.593405,14804.118840,-14063.912898,-86109.133975
1393.596016,-25018.960840,16580.613101,-63432.707234
1393.598627,20577.725188,-21317.931130,-88560.639569
1393.601239,8586.388927,-7994.224174,-88867.077768
1393.603850,-15692.365970,18801.230927,-67416.403824
1393.606461,-1332.370696,-7994.224174,-83810.847481
1393.609072,9474.636058,2664.741391,-73238.729609
1393.611683,-5329.482782,2960.823768,-68642.156621
1393.614294,3849.070898,-5773.606348,-76609.549800
1393.616905,6809.894666,2812.782580,-73391.948708
1393.619516,-12879.583391,11251.130318,-70480.785816
1393.622127,4441.235652,-3701.029710,-83044.751983
1393.624738,-8290.306550,6217.729913,-73238.729609
1393.627349,3256.906145,6661.853478,-68948.594820
1393.629960,12139.377449,-4885.359217,-79980.369991
1393.632571,-12435.459826,740.205942,-78601.398095
1393.635181,5477.523971,7402.059420,-73238.729609
1393.637792,2072.576638,3108.864956,-75843.454302
1393.640402,-3552.988522,3404.947333,-74617.701505
1393.643013,2812.782580,1480.411884,-74464.482406
1393.645623,3256.906145,2960.823768,-76609.549800
1393.648234,-1924.535449,148.041188,-78907.836294
1393.650844,-592.164754,-592.164754,-75077.358804
1393.653455,-8290.306550,3997.112087,-72779.072310
1393.656065,1332.370696,444.123565,-75077.358804
1393.658676,0.000000,-1924.535449,-76456.330700
1393.661286,4885.359217,4737.318029,-75843.454302
1393.663897,-2664.741391,1480.411884,-74004.825107
1393.666507,592.164754,-740.205942,-77682.083497
1393.669118,-2368.659014,-592.164754,-70787.224015
1393.671728,-148.041188,9326.594869,-72625.853210
1393.674339,-15248.242405,11695.253884,-70327.566716
1393.676949,21465.972318,-11251.130318,-82891.532884
1393.679560,-21465.972318,13027.624579,-70327.566716
1393.682170,-16580.613101,2516.700203,-80133.589091
1393.684781,13323.706956,-1776.494261,-83197.971083
1393.687391,-23094.425390,23242.466579,-71859.757712
1393.690002,13027.624579,-14508.036463,-94536.184453
1393.692612,-15544.324782,12879.583391,-73545.167808
1393.695223,-14063.912898,14656.077652,-64811.679131
1393.697833,16136.489536,-7846.182985,-79214.274493
1393.700444,-11991.336260,14063.912898,-69408.252119
1393.703054,-6069.688724,8290.306550,-74158.044206
1393.705665,-1184.329507,1184.329507,-81206.122788
1393.708275,-17764.942608,16432.571912,-69867.909418
1393.710886,-7402.059420,11251.130318,-69561.471218
1393.713496,-1776.494261,-888.247130,-78601.398095
1393.716107,296.082377,6217.729913,-75383.797003
1393.718717,-2516.700203,6957.935855,-75690.235202
1393.721328,-6957.935855,3256.906145,-77375.645298
1393.723938,-1480.411884,4293.194464,-71859.757712
1393.726549,-1628.453072,3701.029710,-75230.577904
1393.729159,-3997.112087,7698.141797,-77835.302597
1393.731769,-4589.276840,3108.864956,-77069.207099
1393.734380,-15100.201217,9918.759623,-71246.881314
1393.736987,-5921.647536,3701.029710,-75537.016103
1393.739595,-7105.977043,8734.430116,-76762.768900
1393.742202,444.123565,13915.871710,-74770.920605
1393.744809,-6217.729913,8142.265362,-74311.263306
1393.747417,-9622.677246,8734.430116,-75077.358804
1393.750024,-296.082377,1332.370696,-72319.415011
1393.752631,-5773.606348,888.247130,-74770.920605
1393.755238,-1480.411884,8438.347739,-74464.482406
1393.757846,-8438.347739,9326.594869,-77069.207099
1393.760453,4589.276840,-444.123565,-79673.931792
1393.763060,-14211.954086,11991.336260,-68029.280222
1393.765668,1184.329507,1036.288319,-76456.330700
1393.768275,17912.983796,4737.318029,-75230.577904
1393.770882,-12139.377449,11103.089130,-63585.926334
1393.773490,12731.542202,-17172.777854,-78448.178995
1393.776097,-6661.853478,14211.954086,-64658.460031
1393.778704,-4737.318029,-1480.411884,-78141.740796
1393.781312,12287.418637,-7105.977043,-84117.285680
1393.783919,-3849.070898,8734.430116,-70174.347617
1393.786526,-8734.430116,5329.482782,-73085.510509
1393.789134,2516.700203,-4885.359217,-80133.589091
1393.791741,9918.759623,-13027.624579,-80746.465489
1393.794348,-15544.324782,6069.688724,-68948.594820
1393.796955,1628.453072,-592.164754,-77988.521696
1393.799563,3997.112087,7105.977043,-72472.634111
1393.802170,-9474.636058,7105.977043,-72166.195912
1393.804777,4441.235652,-2812.782580,-80286.808190
1393.807385,-7105.977043,2960.823768,-74311.263306
1393.809992,2516.700203,1628.453072,-75996.673402
1393.812599,-3701.029710,5477.523971,-73698.386908
1393.815207,-7254.018232,3552.988522,-74004.825107
1393.817814,6365.771101,444.123565,-74617.701505
1393.820421,-2072.576638,2516.700203,-75537.016103
1393.823029,-3849.070898,2368.659014,-74770.920605
1393.825636,9918.759623,-4885.359217,-76456.330700
1393.828243,-8142.265362,1776.494261,-73238.729609
1393.830851,444.123565,-2220.617826,-78601.398095
1393.833458,5329.482782,-888.247130,-76149.892501
1393.836065,-1628.453072,7254.018232,-73698.386908
1393.838672,0.000000,740.205942,-74004.825107
1393.841277,-5477.523971,5033.400406,-74464.482406
1393.843881,4885.359217,2220.617826,-70634.004916
1393.846485,-6365.771101,1036.288319,-75843.454302
1393.849089,6957.935855,-2664.741391,-81206.122788
1393.851693,-1332.370696,10510.924376,-75077.358804
1393.854297,-15100.201217,-5625.565159,-73851.606007
1393.856902,13471.748144,-444.123565,-76149.892501
1393.859506,-25167.002028,31532.773129,-59449.010645
1393.862110,-14656.077652,3404.947333,-75996.673402
1393.864714,21465.972318,-296.082377,-82125.437386
1393.867318,-27831.743419,27831.743419,-58682.915147
1393.869922,6365.771101,-7254.018232,-85036.600278
1393.872527,1184.329507,-2368.659014,-74158.044206
1393.875131,-18357.107362,10510.924376,-72012.976812
1393.877735,8734.430116,-2960.823768,-83197.971083
1393.880339,-4589.276840,8882.471304,-77222.426198
1393.882943,-17764.942608,9474.636058,-73545.167808
1393.885547,2220.617826,1924.535449,-76915.987999
1393.888152,-9030.512492,9178.553681,-76303.111601
1393.890756,-2812.782580,9030.512492,-75690.235202
1393.893360,-1332.370696,-1036.288319,-79214.274493
1393.895964,-16136.489536,5329.482782,-71553.319513
1393.898568,-592.164754,5921.647536,-73545.167808
1393.901172,-5921.647536,3256.906145,-77682.083497
1393.903776,-7402.059420,3997.112087,-77988.521696
1393.906381,-888.247130,5477.523971,-74311.263306
1393.908985,-15396.283594,6661.853478,-75843.454302
1393.911589,-6069.688724,5625.565159,-75537.016103
1393.914193,-2664.741391,10955.047942,-71859.757712
1393.916797,-4589.276840,9770.718434,-74924.139704
1393.919401,-6217.729913,6217.729913,-79061.055394
1393.922006,-7698.141797,5921.647536,-74311.263306
1393.924610,444.123565,-1628.453072,-76456.330700
1393.927214,-8882.471304,3108.864956,-76762.768900
1393.929818,-7698.141797,9030.512492,-74617.701505
1393.932422,3404.947333,14211.954086,-73391.948708
1393.935026,-14656.077652,12435.459826,-67569.622924
1393.937631,5773.606348,1480.411884,-76762.768900
1393.940235,-10658.965565,17468.860231,-66803.527426
1393.942839,-2220.617826,-8438.347739,-81665.780087
1393.945441,21317.931130,-11251.130318,-83657.628382
1393.948042,-31828.855506,14211.954086,-64198.802732
1393.950644,18357.107362,-15248.242405,-84883.381178
1393.953246,444.123565,5773.606348,-68948.594820
1393.955848,-10658.965565,11103.089130,-72779.072310
1393.958450,15248.242405,-2368.659014,-79980.369991
1393.961051,-6957.935855,12435.459826,-68488.937521
1393.963653,-4589.276840,-888.247130,-74464.482406
1393.966255,9474.636058,-13767.830521,-81512.560987
1393.968857,-6957.935855,3849.070898,-73238.729609
1393.971459,-5033.400406,11251.130318,-72472.634111
1393.974060,4293.194464,-2516.700203,-81972.218286
1393.976662,-9326.594869,4737.318029,-74158.044206
1393.979264,6809.894666,3849.070898,-69867.909418
1393.981866,5329.482782,3108.864956,-76609.549800
1393.984468,-6513.812290,6809.894666,-72166.195912
1393.987069,-3552.988522,5625.565159,-73698.386908
1393.989671,-3552.988522,740.205942,-76762.768900
1393.992273,4293.194464,592.164754,-75690.235202
1393.994875,8882.471304,1036.288319,-82278.656485
1393.997477,-10807.006753,740.205942,-80746.465489
1394.000078,148.041188,-296.082377,-74004.825107
1394.002680,3256.906145,-4737.318029,-73851.606007
1394.005282,4293.194464,-11399.171507,-79673.931792
1394.007884,7254.018232,3108.864956,-77069.207099
1394.010486,-14211.954086,7550.100608,-74004.825107
1394.013087,6217.729913,148.041188,-79673.931792
1394.015689,-2960.823768,-1036.288319,-73851.606007
1394.018291,3997.112087,9326.594869,-67569.622924
1394.020893,-8734.430116,6957.935855,-67722.842023
1394.023495,13767.830521,-6513.812290,-81359.341888
1394.026096,-21021.848753,14952.160028,-70480.785816
1394.028698,-7846.182985,-4737.318029,-84730.162079
1394.031300,5181.441594,7698.141797,-75996.673402
1394.033902,-25167.002028,13619.789333,-72472.634111
1394.036504,19541.436869,-9030.512492,-94076.527154
1394.039105,-16728.654289,19097.313304,-69255.033019
1394.041707,-12287.418637,4885.359217,-75537.016103
1394.044309,13767.830521,-7402.059420,-82278.656485
1394.046911,-3552.988522,7105.977043,-72166.195912
1394.049509,-15840.407159,16432.571912,-68795.375720
1394.052106,2812.782580,1184.329507,-80899.684589
1394.054704,-13471.748144,13027.624579,-72625.853210
1394.057302,-8438.347739,9178.553681,-75996.673402
1394.059900,1776.494261,-1036.288319,-77222.426198
1394.062498,-10214.842000,6513.812290,-72779.072310
1394.065095,-1036.288319,7994.224174,-75843.454302
1394.067693,-5921.647536,148.041188,-83044.751983
1394.070291,-2072.576638,3701.029710,-77222.426198
1394.072889,-2664.741391,8142.265362,-69101.813920
1394.075487,-10362.883188,4145.153275,-77528.864398
1394.078084,-4589.276840,7994.224174,-76762.768900
1394.080682,-3404.947333,6957.935855,-74924.139704
1394.083280,-5329.482782,9622.677246,-75383.797003
1394.085878,-592.164754,9178.553681,-77069.207099
1394.088476,-7994.224174,11991.336260,-74770.920605
1394.091073,-3404.947333,3997.112087,-75996.673402
1394.093671,-7698.141797,-1628.453072,-77835.302597
1394.096269,-9474.636058,6069.688724,-75230.577904
1394.098867,-8438.347739,4441.235652,-76609.549800
1394.101465,8882.471304,5033.400406,-78294.959896
1394.104062,-16580.613101,16580.613101,-69101.813920
1394.106660,3997.112087,-1480.411884,-79520.712692
1394.109258,-888.247130,17764.942608,-66956.746525
1394.111856,-7254.018232,2960.823768,-69714.690318
1394.114454,20725.766376,-17764.942608,-85343.038477
1394.117051,-4145.153275,11695.253884,-68795.375720
1394.119649,-6069.688724,2220.617826,-72012.976812
1394.122247,9622.677246,-11399.171507,-90552.487864
1394.124845,-9622.677246,14952.160028,-72166.195912
1394.127443,-4293.194464,1628.453072,-78294.959896
1394.130040,6217.729913,148.041188,-75383.797003
1394.132638,-1924.535449,3404.947333,-71093.662214
1394.135236,1036.288319,-7550.100608,-79367.493593
1394.137834,1628.453072,0.000000,-75843.454302
1394.140432,-296.082377,7254.018232,-72932.291410
1394.143029,-3997.112087,2368.659014,-77528.864398
1394.145627,-2664.741391,2812.782580,-75537.016103
1394.148225,-6809.894666,6809.894666,-72625.853210
1394.150823,6661.853478,2516.700203,-76303.111601
1394.153417,2664.741391,3256.906145,-75690.235202
1394.156012,-1924.535449,3552.988522,-76609.549800
1394.158606,-1776.494261,2072.576638,-72932.291410
1394.161200,-2664.741391,-4145.153275,-74617.701505
1394.163795,3256.906145,0.000000,-80286.808190
1394.166389,444.123565,-2072.576638,-80593.246390
1394.168984,-3108.864956,-6069.688724,-77528.864398
1394.171578,-2072.576638,-2960.823768,-72932.291410
1394.174173,2516.700203,1184.329507,-74617.701505
1394.176767,-4589.276840,5033.400406,-74924.139704
1394.179361,4737.318029,5921.647536,-74004.825107
1394.181956,-2516.700203,-592.164754,-73391.948708
1394.184550,296.082377,5625.565159,-72319.415011
1394.187145,-8734.430116,4441.235652,-69561.471218
1394.189739,17764.942608,-11251.130318,-81818.999186
1394.192333,-11399.171507,15100.201217,-67876.061123
1394.194928,-21465.972318,11991.336260,-74158.044206
1394.197522,10955.047942,-2960.823768,-86568.791274
1394.200117,-24870.919651,22206.178260,-68948.594820
1394.202711,5625.565159,-12287.418637,-93003.993457
1394.205305,7402.059420,-6957.935855,-85802.695776
1394.207900,-15248.242405,12139.377449,-66803.527426
1394.210494,-740.205942,-5625.565159,-78448.178995
1394.213089,2220.617826,6365.771101,-74311.263306
1394.215683,-11103.089130,17024.736666,-68642.156621
1394.218277,3108.864956,8142.265362,-76456.330700
1394.220872,-3552.988522,4293.194464,-78294.959896
1394.223466,-11399.171507,10066.800811,-73238.729609
1394.226061,-1628.453072,6217.729913,-75383.797003
1394.228655,-1628.453072,3701.029710,-78448.178995
1394.231249,-9030.512492,8142.265362,-74158.044206
1394.233844,-888.247130,6217.729913,-71400.100414
1394.236438,-6957.935855,3108.864956,-74924.139704
1394.239033,-7105.977043,5477.523971,-74924.139704
1394.241627,-13767.830521,9918.759623,-74770.920605
1394.244222,-3701.029710,3404.947333,-84270.504780
1394.246816,-2664.741391,6809.894666,-76456.330700
1394.249410,-9770.718434,8142.265362,-76915.987999
1394.252005,-592.164754,10658.965565,-75537.016103
1394.254599,-3404.947333,7402.059420,-73085.510509
1394.257191,-9178.553681,2072.576638,-75230.577904
1394.259782,-444.123565,4589.276840,-74464.482406
1394.262373,-11695.253884,11399.171507,-73391.948708
1394.264965,2960.823768,296.082377,-79520.712692
1394.267556,-7550.100608,6217.729913,-77069.207099
1394.270148,-17616.901420,7698.141797,-75230.577904
1394.272739,22058.137072,-5181.441594,-79367.493593
1394.275330,-15396.283594,14656.077652,-59449.010645
1394.277922,14359.995275,-19097.313304,-80133.589091
1394.280513,3552.988522,12435.459826,-66650.308326
1394.283105,-16580.613101,8142.265362,-68488.937521
1394.285696,16432.571912,-10510.924376,-87334.886772
1394.288287,-6957.935855,12435.459826,-67416.403824
1394.290879,-5329.482782,5181.441594,-74617.701505
1394.293470,14804.118840,-2516.700203,-78601.398095
1394.296062,-8586.388927,7846.182985,-69408.252119
1394.298653,-592.164754,592.164754,-74617.701505
1394.301244,6217.729913,-5773.606348,-78907.836294
1394.303836,-10807.006753,6513.812290,-70480.785816
1394.306427,-1924.535449,4145.153275,-71859.757712
1394.309019,-1184.329507,148.041188,-79061.055394
1394.311610,-2960.823768,5477.523971,-74617.701505
1394.314201,0.000000,2812.782580,-72012.976812
1394.316793,-10658.965565,592.164754,-76303.111601
1394.319384,-888.247130,1332.370696,-75996.673402
1394.321975,9326.594869,1480.411884,-77682.083497
1394.324567,-1332.370696,3256.906145,-73391.948708
1394.327158,6217.729913,-740.205942,-70940.443115
1394.329750,-3997.112087,1036.288319,-71706.538613
1394.332341,-2072.576638,-5033.400406,-76303.111601
1394.334932,7105.977043,-3256.906145,-75843.454302
1394.337524,-7402.059420,5329.482782,-75537.016103
1394.340115,4145.153275,4293.194464,-79061.055394
1394.342707,-2220.617826,-2812.782580,-77835.302597
1394.345298,-1776.494261,4145.153275,-72319.415011
1394.347889,-10955.047942,5625.565159,-71400.100414
1394.350481,17616.901420,-14656.077652,-88867.077768
1394.353072,-14359.995275,11991.336260,-74004.825107
1394.355664,-15100.201217,1036.288319,-81206.122788
1394.358255,3849.070898,5625.565159,-80286.808190
1394.360844,-26203.290347,18357.107362,-70787.224015
1394.363433,11251.130318,-11843.295072,-93616.869856
1394.366022,-5773.606348,14359.995275,-73391.948708
1394.368611,-15100.201217,10807.006753,-71093.662214
1394.371199,6365.771101,-6513.812290,-79061.055394
1394.373788,-5477.523971,1776.494261,-73851.606007
1394.376377,-15396.283594,16876.695478,-69101.813920
1394.378966,3552.988522,9178.553681,-77988.521696
1394.381555,-10510.924376,10214.842000,-75383.797003
1394.384144,-9770.718434,7105.977043,-73545.167808
1394.386733,-2516.700203,888.247130,-75383.797003
1394.389322,-6513.812290,6217.729913,-72779.072310
1394.391911,-3552.988522,6809.894666,-74158.044206
1394.394499,-2960.823768,2960.823768,-76303.111601
1394.397088,-7994.224174,4145.153275,-72319.415011
1394.399677,-1036.288319,6957.935855,-72166.195912
1394.402266,-15248.242405,8882.471304,-75383.797003
1394.404855,-6069.688724,10807.006753,-76915.987999
1394.407444,5329.482782,4293.194464,-76762.768900
1394.410033,-8290.306550,15840.407159,-73085.510509
1394.412622,-1332.370696,8290.306550,-73238.729609
1394.415210,-4737.318029,-148.041188,-76915.987999
1394.417799,-13323.706956,6957.935855,-73851.606007
1394.420388,-3849.070898,2960.823768,-75996.673402
1394.422977,-3701.029710,12583.501014,-73851.606007
1394.425566,-7402.059420,10362.883188,-69867.909418
1394.428155,6513.812290,-1332.370696,-80133.589091
1394.430744,-20873.807564,21910.095883,-67109.965625
1394.433333,6217.729913,-13323.706956,-83657.628382
1394.435922,8882.471304,-9030.512492,-83657.628382
1394.438510,-16284.530724,10807.006753,-67876.061123
1394.441099,23390.507767,-18653.189738,-88100.982270
1394.443688,1776.494261,-4737.318029,-78601.398095
1394.446277,-11695.253884,15692.365970,-68335.718422
1394.448866,11843.295072,-6957.935855,-87028.448573
1394.451455,0.000000,7254.018232,-75843.454302
1394.454044,-3849.070898,1628.453072,-71706.538613
1394.456633,3849.070898,-8438.347739,-78141.740796
1394.459222,-2220.617826,-2960.823768,-74617.701505
1394.461810,-1184.329507,3701.029710,-73391.948708
1394.464394,3404.947333,7105.977043,-74158.044206
1394.466980,4441.235652,4441.235652,-75843.454302
1394.469565,-4737.318029,3404.947333,-76762.768900
1394.472150,740.205942,2960.823768,-73545.167808
1394.474736,5033.400406,3849.070898,-74004.825107
1394.477321,-5477.523971,5329.482782,-75537.016103
1394.479906,2812.782580,-1776.494261,-76915.987999
1394.482492,-888.247130,-148.041188,-70174.347617
1394.485077,5329.482782,1036.288319,-73238.729609
1394.487662,592.164754,-8290.306550,-77988.521696
1394.490248,-3256.906145,-2072.576638,-76456.330700
1394.492833,740.205942,4589.276840,-70634.004916
1394.495418,-3256.906145,296.082377,-79061.055394
1394.498004,7846.182985,1924.535449,-78601.398095
1394.500589,-148.041188,-1628.453072,-77375.645298
1394.503174,3849.070898,-5921.647536,-80133.589091
1394.505759,-11547.212695,9178.553681,-70787.224015
1394.508345,11843.295072,-12435.459826,-80133.589091
1394.510930,-2516.700203,7994.224174,-72012.976812
1394.513515,-23390.507767,20281.642811,-67722.842023
1394.516101,10807.006753,-2220.617826,-81206.122788
1394.518686,-10066.800811,18949.272115,-67416.403824
1394.521271,-13027.624579,17024.736666,-65271.336430
1394.523857,9770.718434,-10214.842000,-85649.476676
1394.526442,-8882.471304,13175.665768,-66343.870127
1394.529027,-3849.070898,-592.164754,-74004.825107
1394.531613,2812.782580,2220.617826,-76149.892501
1394.534198,-13471.748144,14063.912898,-71246.881314
1394.536783,-4441.235652,11547.212695,-70634.004916
1394.539369,1480.411884,9178.553681,-72779.072310
1394.541954,-10510.924376,8734.430116,-73391.948708
1394.544539,-6661.853478,2072.576638,-75077.358804
1394.547125,444.123565,3108.864956,-76149.892501
1394.549710,-8586.388927,6957.935855,-74311.263306
1394.552295,0.000000,6809.894666,-74158.044206
1394.554881,-2072.576638,3256.906145,-75383.797003
1394.557466,-10807.006753,12435.459826,-72932.291410
1394.560051,-5181.441594,9622.677246,-76149.892501
1394.562637,-8438.347739,7402.059420,-75996.673402
1394.565222,-4737.318029,15692.365970,-67876.061123
1394.567804,-444.123565,2960.823768,-76915.987999
1394.570387,-6809.894666,-444.123565,-80133.589091
1394.572970,-4589.276840,7846.182985,-73851.606007
1394.575552,-9474.636058,2072.576638,-75996.673402
1394.578135,-444.123565,11103.089130,-73085.510509
1394.580718,-7254.018232,7105.977043,-71246.881314
1394.583300,9474.636058,-2072.576638,-83657.628382
1394.585883,-19393.395680,19985.560434,-68029.280222
1394.588466,-7550.100608,-1776.494261,-75383.797003
1394.591048,24722.878463,-14063.912898,-87641.324971
1394.593631,-29460.196492,13323.706956,-64045.583633
1394.596213,15100.201217,-17320.819043,-84270.504780
1394.598796,4293.194464,1036.288319,-72012.976812
1394.601379,-13027.624579,7994.224174,-75996.673402
1394.603961,10807.006753,-4885.359217,-82891.532884
1394.606544,-1628.453072,9030.512492,-70787.224015
1394.609127,-6513.812290,296.082377,-72779.072310
1394.611709,16432.571912,-11251.130318,-81206.122788
1394.614292,-4145.153275,3701.029710,-71246.881314
1394.616875,-296.082377,1480.411884,-72932.291410
1394.619457,3108.864956,-1332.370696,-77069.207099
1394.622040,-6809.894666,2664.741391,-76303.111601
1394.624622,-6957.935855,2516.700203,-71859.757712
1394.627205,2516.700203,2072.576638,-75843.454302
1394.629788,-3701.029710,-1480.411884,-80746.465489
1394.632370,-1332.370696,4145.153275,-77528.864398
1394.634953,5477.523971,-2368.659014,-77682.083497
1394.637536,2220.617826,-3849.070898,-80746.465489
1394.640118,2516.700203,-5477.523971,-76762.768900
1394.642701,-7402.059420,740.205942,-72932.291410
1394.645284,-2220.617826,-3256.906145,-75383.797003
1394.647866,888.247130,3404.947333,-74617.701505
1394.650449,3849.070898,5773.606348,-74158.044206
1394.653032,3404.947333,-1184.329507,-76149.892501
1394.655614,0.000000,740.205942,-76149.892501
1394.658197,-20577.725188,12879.583391,-69867.909418
1394.660779,23390.507767,-9178.553681,-72012.976812
1394.663362,9770.718434,4737.318029,-74311.263306
1394.665945,-26499.372724,30348.443622,-58989.353346
1394.668527,14804.118840,-4145.153275,-84576.942979
1394.671108,-24278.754898,27091.537477,-63892.364533
1394.673688,-5033.400406,4293.194464,-77222.426198
1394.676269,740.205942,-5329.482782,-84423.723880
1394.678849,-10955.047942,14211.954086,-68488.937521
1394.681430,4293.194464,-2368.659014,-77375.645298
1394.684010,-5329.482782,296.082377,-74924.139704
1394.686590,-10066.800811,16728.654289,-65884.212828
1394.689171,-7254.018232,7698.141797,-76915.987999
1394.691751,-5625.565159,10658.965565,-74004.825107
1394.694332,-5181.441594,11103.089130,-69714.690318
1394.696912,-4145.153275,1036.288319,-73391.948708
1394.699493,-3701.029710,5921.647536,-75230.577904
1394.702073,-1924.535449,6661.853478,-77222.426198
1394.704653,-2220.617826,4441.235652,-75690.235202
1394.707234,-740.205942,3701.029710,-71093.662214
1394.709814,-8586.388927,10658.965565,-71246.881314
1394.712395,-3997.112087,6809.894666,-74924.139704
1394.714975,-4737.318029,11103.089130,-75996.673402
1394.717556,4885.359217,12583.501014,-72625.853210
1394.720136,-1480.411884,3256.906145,-75383.797003
1394.722717,-11547.212695,8734.430116,-72932.291410
1394.725297,-1924.535449,6217.729913,-73085.510509
1394.727877,-15248.242405,6809.894666,-76456.330700
1394.730458,3997.112087,-296.082377,-78448.178995
1394.733038,9326.594869,2516.700203,-82585.094684
1394.735619,-26647.413912,12435.459826,-72166.195912
1394.738199,16876.695478,-15248.242405,-86875.229473
1394.740780,-8142.265362,6217.729913,-68488.937521
1394.743360,1184.329507,-5477.523971,-76762.768900
1394.745940,23242.466579,-1480.411884,-77375.645298
1394.748521,-19097.313304,14063.912898,-61900.516238
1394.751101,4589.276840,-6217.729913,-80899.684589
1394.753679,3256.906145,4589.276840,-72166.195912
1394.756256,-6069.688724,11103.089130,-70327.566716
1394.758834,11695.253884,-7994.224174,-82125.437386
1394.761411,-3404.947333,6069.688724,-72319.415011
1394.763989,592.164754,-592.164754,-75537.016103
1394.766566,3701.029710,-8438.347739,-81052.903688
1394.769144,-5329.482782,2368.659014,-75996.673402
1394.771721,-2960.823768,11991.336260,-69867.909418
1394.774299,888.247130,3256.906145,-74004.825107
1394.776876,-7698.141797,1924.535449,-74770.920605
1394.779454,4145.153275,1776.494261,-75230.577904
1394.782031,-2664.741391,2664.741391,-77835.302597
1394.784609,6365.771101,-3849.070898,-78448.178995
1394.787186,12879.583391,-1924.535449,-74617.701505
1394.789764,-3108.864956,-4441.235652,-76456.330700
1394.792342,3108.864956,-3404.947333,-78448.178995
1394.794919,-2516.700203,0.000000,-75077.358804
1394.797497,-4589.276840,6661.853478,-72779.072310
1394.800074,10807.006753,1332.370696,-77988.521696
1394.802652,-5477.523971,-2516.700203,-77988.521696
1394.805229,9918.759623,-2516.700203,-79520.712692
1394.807807,-13767.830521,6809.894666,-75230.577904
1394.810384,296.082377,-5477.523971,-75690.235202
1394.812962,13619.789333,2664.741391,-76456.330700
1394.815539,-27387.619854,28423.908173,-62360.173537
1394.818117,11103.089130,-1776.494261,-84270.504780
1394.820694,-26499.372724,23538.548956,-66343.870127
1394.823272,-7105.977043,6809.894666,-75077.358804
1394.825849,10658.965565,-3552.988522,-82585.094684
1394.828427,-20281.642811,13027.624579,-69101.813920
1394.831004,-148.041188,296.082377,-76609.549800
1394.833582,1924.535449,148.041188,-76303.111601
1394.836159,-14063.912898,14063.912898,-69408.252119
1394.838737,2812.782580,6957.935855,-75843.454302
1394.841314,-9326.594869,6809.894666,-76609.549800
1394.843892,-5329.482782,8586.388927,-72012.976812
1394.846469,-740.205942,2516.700203,-71859.757712
1394.849047,-8142.265362,4885.359217,-74004.825107
1394.851624,-296.082377,6513.812290,-76915.987999
1394.854202,-3849.070898,6957.935855,-74464.482406
1394.856777,-11103.089130,7846.182985,-69408.252119
1394.859352,-10066.800811,1184.329507,-72319.415011
1394.861927,-6513.812290,10807.006753,-76609.549800
1394.864502,1480.411884,11399.171507,-78294.959896
1394.867077,3552.988522,5329.482782,-77682.083497
1394.869652,-10807.006753,10510.924376,-70174.347617
1394.872227,-3552.988522,3256.906145,-73851.606007
1394.874802,-15248.242405,7994.224174,-75230.577904
1394.877377,3256.906145,3256.906145,-77528.864398
1394.879953,-1776.494261,9178.553681,-74004.825107
1394.882528,-2812.782580,296.082377,-77988.521696
1394.885103,6957.935855,6069.688724,-74311.263306
1394.887678,-22058.137072,6661.853478,-67416.403824
1394.890253,22502.260637,-15988.448347,-83351.190182
1394.892828,-13915.871710,20133.601622,-61747.297139
1394.895403,-444.123565,-8882.471304,-82585.094684
1394.897978,11399.171507,-10214.842000,-84423.723880
1394.900553,-19837.519246,17912.983796,-66956.746525
1394.903128,6513.812290,-6365.771101,-85649.476676
1394.905703,9030.512492,296.082377,-78754.617194
1394.908278,-10214.842000,7550.100608,-70787.224015
1394.910854,11547.212695,-5921.647536,-78601.398095
1394.913429,-2220.617826,-1628.453072,-75537.016103
1394.916004,-7402.059420,4293.194464,-75843.454302
1394.918579,4441.235652,6069.688724,-77375.645298
1394.921154,1776.494261,-296.082377,-80133.589091
1394.923729,-8290.306550,296.082377,-74924.139704
1394.926304,-2960.823768,6809.894666,-69714.690318
1394.928879,-3849.070898,1480.411884,-75843.454302
1394.931454,7254.018232,-4441.235652,-76303.111601
1394.934029,5921.647536,-2072.576638,-75383.797003
1394.936604,-8290.306550,-1036.288319,-76456.330700
1394.939179,2220.617826,-5477.523971,-79673.931792
1394.941754,-2812.782580,592.164754,-77222.426198
1394.944330,-444.123565,1924.535449,-78141.740796
1394.946905,4441.235652,6661.853478,-72012.976812
1394.949480,-4293.194464,7105.977043,-73698.386908
1394.952055,-2220.617826,-4589.276840,-76456.330700
1394.954630,-1332.370696,-2072.576638,-79673.931792
1394.957205,-12435.459826,2960.823768,-70940.443115
1394.959778,22502.260637,-7994.224174,-87641.324971
1394.962351,-28127.825796,28275.866984,-64352.021832
1394.964925,3404.947333,888.247130,-74004.825107
1394.967498,-5921.647536,9622.677246,-72625.853210
1394.970071,-21465.972318,21910.095883,-62513.392637
1394.972644,19689.478057,-6365.771101,-86415.572174
1394.975217,-9474.636058,12731.542202,-68948.594820
1394.977790,-10362.883188,6217.729913,-69714.690318
1394.980364,1480.411884,-1184.329507,-76915.987999
1394.982937,-11103.089130,13767.830521,-74158.044206
1394.985510,-7550.100608,13323.706956,-72625.853210
1394.988083,-1628.453072,3997.112087,-77988.521696
1394.990656,-1184.329507,5921.647536,-78294.959896
1394.993229,592.164754,-148.041188,-75843.454302
1394.995803,-6513.812290,7254.018232,-72779.072310
1394.998376,-3701.029710,2664.741391,-76762.768900
1395.000949,-5773.606348,8290.306550,-73391.948708
1395.003522,-7698.141797,11251.130318,-71246.881314
1395.006095,-11399.171507,9178.553681,-73851.606007
1395.008669,-1480.411884,8882.471304,-73391.948708
1395.011242,-1480.411884,8438.347739,-70634.004916
1395.013815,-8142.265362,7105.977043,-73698.386908
1395.016388,-1924.535449,6957.935855,-75996.673402
1395.018961,-12583.501014,7254.018232,-74004.825107
1395.021534,592.164754,6661.853478,-73545.167808
1395.024108,-4145.153275,13175.665768,-67569.622924
1395.026681,10955.047942,-1184.329507,-76609.549800
1395.029254,-3997.112087,16580.613101,-66497.089226
1395.031827,-9178.553681,-3256.906145,-72012.976812
1395.034400,19689.478057,-14952.160028,-86875.229473
1395.036974,-22798.343014,17764.942608,-65424.555529
1395.039547,18209.066173,-14063.912898,-86415.572174
1395.042120,444.123565,888.247130,-74158.044206
1395.044693,-12287.418637,7846.182985,-69867.909418
1395.047266,-3849.070898,-3997.112087,-78754.617194
1395.049839,7698.141797,-2368.659014,-78601.398095
1395.052413,-5625.565159,5477.523971,-73698.386908
1395.054986,1332.370696,-4589.276840,-78907.836294
1395.057559,3404.947333,-4145.153275,-74311.263306
1395.060132,-5477.523971,3256.906145,-71553.319513
1395.062655,-13619.789333,5625.565159,-71859.757712
1395.065178,148.041188,5477.523971,-74158.044206
1395.067701,-7698.141797,296.082377,-78141.740796
1395.070224,-2220.617826,1332.370696,-75537.016103
1395.072747,888.247130,1184.329507,-72472.634111
1395.075270,10362.883188,-5921.647536,-78907.836294
1395.077793,6957.935855,-1036.288319,-76762.768900
1395.080316,-10955.047942,1480.411884,-75690.235202
1395.082839,1776.494261,-740.205942,-76149.892501
1395.085362,-6365.771101,592.164754,-74617.701505
1395.087885,3108.864956,3404.947333,-75077.358804
1395.090408,7105.977043,-3404.947333,-77375.645298
1395.092931,-1332.370696,2072.576638,-75843.454302
1395.095454,-17024.736666,6957.935855,-70634.004916
1395.097977,10807.006753,-14211.954086,-81052.903688
1395.100500,296.082377,10658.965565,-70327.566716
1395.103023,-22650.301825,25018.960840,-65730.993728
1395.105546,14952.160028,-10066.800811,-93923.308055
1395.108069,-33605.349767,28275.866984,-65730.993728
1395.110591,-296.082377,-2368.659014,-79827.150892
1395.113114,-888.247130,-2516.700203,-81206.122788
1395.115637,-14063.912898,16284.530724,-70634.004916
1395.118160,3256.906145,-888.247130,-81818.999186
1395.120683,-3108.864956,-1480.411884,-80593.246390
1395.123206,-12731.542202,10807.006753,-70327.566716
1395.125729,-1924.535449,9030.512492,-75230.577904
1395.128252,-11251.130318,8586.388927,-78294.959896
1395.130775,-10658.965565,6513.812290,-75383.797003
1395.133298,-6217.729913,3997.112087,-77528.864398
1395.135821,-4441.235652,4885.359217,-74770.920605
1395.138344,-2516.700203,4737.318029,-72319.415011
1395.140867,-7698.141797,5033.400406,-76456.330700
1395.143390,-3997.112087,8438.347739,-75996.673402
1395.145913,-15248.242405,12879.583391,-71706.538613
1395.148436,4145.153275,5033.400406,-74617.701505
1395.150959,1480.411884,7254.018232,-72472.634111
1395.153482,-7550.100608,9918.759623,-74924.139704
1395.156005,-4441.235652,6661.853478,-76762.768900
1395.158528,-26055.249158,8290.306550,-74004.825107
1395.161051,2960.823768,8734.430116,-72779.072310
1395.163584,-4885.359217,11103.089130,-72166.195912
1395.166117,4293.194464,4293.194464,-72932.291410
1395.168650,13767.830521,0.000000,-75537.016103
1395.171182,-19985.560434,10510.924376,-64198.802732
1395.173715,23686.590144,-16136.489536,-82431.875585
1395.176248,-6513.812290,12731.542202,-66803.527426
1395.178781,-4737.318029,-1776.494261,-77528.864398
1395.181314,14211.954086,-8438.347739,-86568.791274
1395.183847,-12879.583391,15840.407159,-69714.690318
1395.186380,444.123565,-6513.812290,-81359.341888
1395.188913,7846.182985,-3849.070898,-76303.111601
1395.191446,-9030.512492,3997.112087,-72779.072310
1395.193979,10066.800811,-7402.059420,-82125.437386
1395.196512,-1184.329507,-4737.318029,-78141.740796
1395.199044,444.123565,6513.812290,-69714.690318
1395.201577,-740.205942,-296.082377,-77375.645298
1395.204110,3552.988522,740.205942,-79673.931792
1395.206643,-2812.782580,2960.823768,-75843.454302
1395.209176,148.041188,2812.782580,-75537.016103
1395.211709,2664.741391,-4441.235652,-79214.274493
1395.214242,10807.006753,-5329.482782,-74617.701505
1395.216775,-1332.370696,0.000000,-75383.797003
1395.219308,-1924.535449,-888.247130,-78294.959896
1395.221841,2516.700203,-2812.782580,-77069.207099
1395.224374,-1628.453072,3701.029710,-73238.729609
1395.226907,12731.542202,0.000000,-73545.167808
1395.229439,-5329.482782,7254.018232,-72625.853210
1395.231972,-3849.070898,1628.453072,-74464.482406
1395.234505,-296.082377,1036.288319,-75077.358804
1395.237038,-18209.066173,-2516.700203,-69561.471218
1395.239571,10214.842000,-3997.112087,-84576.942979
1395.242104,-11399.171507,17764.942608,-69561.471218
1395.244637,-23834.631332,11103.089130,-69255.033019
1395.247170,14656.077652,0.000000,-83810.847481
1395.249703,-19245.354492,18357.107362,-67722.842023
1395.252236,444.123565,296.082377,-78754.617194
1395.254769,2516.700203,4737.318029,-72319.415011
1395.257302,-17616.901420,7402.059420,-74617.701505
1395.259834,740.205942,-2516.700203,-80746.465489
1395.262367,-1924.535449,11399.171507,-74004.825107
1395.264909,-14063.912898,15840.407159,-68335.718422
1395.267450,-1628.453072,-592.164754,-76149.892501
1395.269991,-1628.453072,6957.935855,-73851.606007
1395.272532,444.123565,5329.482782,-73851.606007
1395.275073,-2664.741391,6957.935855,-74617.701505
1395.277614,-10066.800811,1480.411884,-76762.768900
1395.280155,-8734.430116,13471.748144,-70480.785816
1395.282696,-12435.459826,14952.160028,-73238.729609
1395.285238,-1480.411884,7994.224174,-72012.976812
1395.287779,296.082377,9918.759623,-67109.965625
1395.290320,-9918.759623,6809.894666,-74464.482406
1395.292861,-1036.288319,4145.153275,-77682.083497
1395.295402,-21317.931130,10214.842000,-75996.673402
1395.297943,4885.359217,4589.276840,-77682.083497
1395.300484,-3997.112087,8438.347739,-72472.634111
1395.303026,2072.576638,2220.617826,-76149.892501
1395.305567,3404.947333,13175.665768,-68335.718422
1395.308108,-12435.459826,296.082377,-64352.021832
1395.310649,16876.695478,-15248.242405,-82585.094684
1395.313190,-2516.700203,8882.471304,-72012.976812
1395.315731,-12879.583391,3256.906145,-72625.853210
1395.318272,11843.295072,-8586.388927,-85036.600278
1395.320813,-12435.459826,13027.624579,-70940.443115
1395.323355,-1776.494261,-3849.070898,-80593.246390
1395.325896,5181.441594,-2960.823768,-75230.577904
1395.328437,-7105.977043,7254.018232,-71246.881314
1395.330978,4737.318029,-4293.194464,-79673.931792
1395.333519,1628.453072,-4441.235652,-79673.931792
1395.336060,-8290.306550,6217.729913,-75996.673402
1395.338601,-2960.823768,2812.782580,-78907.836294
1395.341143,-1036.288319,-3256.906145,-81052.903688
1395.343684,-1628.453072,3849.070898,-75843.454302
1395.346225,4145.153275,2960.823768,-75690.235202
1395.348766,5773.606348,-3404.947333,-83810.847481
1395.351307,-3997.112087,-2664.741391,-83197.971083
1395.353848,3997.112087,-1628.453072,-77835.302597
1395.356389,-6661.853478,-1776.494261,-72319.415011
1395.358930,-5921.647536,-2072.576638,-76915.987999
1395.361472,4145.153275,2664.741391,-77069.207099
1395.364013,6217.729913,-1036.288319,-77528.864398
1395.366560,2516.700203,2516.700203,-74464.482406
1395.369106,-21762.054695,12435.459826,-71706.538613
1395.371653,22206.178260,-17024.736666,-88407.420469
1395.374200,-15988.448347,14508.036463,-69714.690318
1395.376747,-17320.819043,13323.706956,-72012.976812
1395.379294,14508.036463,-4145.153275,-88100.982270
1395.381841,-25018.960840,20281.642811,-67722.842023
1395.384387,-3404.947333,10066.800811,-72625.853210
1395.386934,5033.400406,-4441.235652,-85649.476676
1395.389481,-17024.736666,15692.365970,-70634.004916
1395.392028,-1332.370696,1924.535449,-75996.673402
1395.394575,-3108.864956,-1628.453072,-78141.740796
1395.397122,-12139.377449,14063.912898,-71553.319513
1395.399669,-2960.823768,7698.141797,-76762.768900
1395.402215,-6217.729913,5921.647536,-77682.083497
1395.404762,-740.205942,3404.947333,-73851.606007
1395.407309,-2220.617826,3256.906145,-77682.083497
1395.409856,-4441.235652,6217.729913,-75537.016103
1395.412403,-2960.823768,5921.647536,-73238.729609
1395.414950,-14211.954086,8290.306550,-72625.853210
1395.417496,-4441.235652,9326.594869,-78294.959896
1395.420043,-4737.318029,6217.729913,-75537.016103
1395.422590,-148.041188,7698.141797,-74464.482406
1395.425137,-3997.112087,10510.924376,-73851.606007
1395.427684,-6661.853478,5181.441594,-74770.920605
1395.430231,-18653.189738,6069.688724,-73545.167808
1395.432778,7254.018232,2664.741391,-78448.178995
1395.435324,-5329.482782,13175.665768,-72472.634111
1395.437871,3108.864956,-740.205942,-79367.493593
1395.440418,4145.153275,9326.594869,-71400.100414
1395.442965,-15988.448347,8882.471304,-63892.364533
1395.445512,21021.848753,-20133.601622,-84730.162079
1395.448059,-16580.613101,16136.489536,-65884.212828
1395.450605,7402.059420,-7550.100608,-82125.437386
1395.453152,7698.141797,-8882.471304,-85343.038477
1395.455699,-10510.924376,10214.842000,-70787.224015
1395.458246,3404.947333,-1332.370696,-75383.797003
1395.460793,4145.153275,-3997.112087,-81359.341888
1395.463340,592.164754,2664.741391,-78754.617194
1395.465886,-740.205942,-1332.370696,-76303.111601
1395.468437,-2368.659014,-4885.359217,-78294.959896
1395.470988,-888.247130,4589.276840,-72625.853210
1395.473539,-740.205942,7105.977043,-74924.139704
1395.476091,-7698.141797,4737.318029,-73085.510509
1395.478642,1184.329507,-1036.288319,-75230.577904
1395.481194,5625.565159,1184.329507,-73085.510509
1395.483745,-5033.400406,-1480.411884,-72319.415011
1395.486297,5921.647536,-6069.688724,-77682.083497
1395.488848,-4737.318029,3552.988522,-71246.881314
1395.491399,-3108.864956,3997.112087,-74004.825107
1395.493951,888.247130,2072.576638,-76609.549800
1395.496502,6217.729913,-3108.864956,-77528.864398
1395.499054,6217.729913,1184.329507,-76456.330700
1395.501605,-16728.654289,5773.606348,-75077.358804
1395.504156,15692.365970,-10807.006753,-83044.751983
1395.506708,-21021.848753,9474.636058,-72012.976812
1395.509259,-5625.565159,1184.329507,-80746.465489
1395.511811,8438.347739,8734.430116,-80440.027290
1395.514362,-29164.114115,17172.777854,-70480.785816
1395.516913,6217.729913,-6809.894666,-87641.324971
1395.519465,-15396.283594,15544.324782,-68642.156621
1395.522016,-5033.400406,7846.182985,-75996.673402
1395.524568,6957.935855,-2368.659014,-81206.122788
1395.527119,-13767.830521,9622.677246,-73545.167808
1395.529671,-13027.624579,10510.924376,-72319.415011
1395.532222,2960.823768,6217.729913,-75690.235202
1395.534773,-14508.036463,9178.553681,-73698.386908
1395.537325,-1332.370696,3701.029710,-75077.358804
1395.539876,-4737.318029,2812.782580,-78601.398095
1395.542428,-1924.535449,2368.659014,-78907.836294
1395.544979,-7698.141797,5329.482782,-74770.920605
1395.547530,-18505.148550,6957.935855,-75230.577904
1395.550082,6217.729913,1924.535449,-84730.162079
1395.552633,-10658.965565,15840.407159,-74464.482406
1395.555185,-2664.741391,5773.606348,-76149.892501
1395.557736,-1036.288319,11399.171507,-70327.566716
1395.560288,-11547.212695,11547.212695,-70021.128517
1395.562839,-12139.377449,6809.894666,-78141.740796
1395.565390,6661.853478,-1332.370696,-80593.246390
1395.567942,-4441.235652,10066.800811,-76609.549800
1395.570497,-12287.418637,7846.182985,-72625.853210
1395.573053,15544.324782,-13175.665768,-83197.971083
1395.575609,-13619.789333,11103.089130,-60981.201641
1395.578165,8438.347739,-9030.512492,-76456.330700
1395.580720,13027.624579,-1036.288319,-81512.560987
1395.583276,-10510.924376,11695.253884,-64811.679131
1395.585832,3108.864956,-8586.388927,-82278.656485
1395.588387,-4441.235652,6957.935855,-74924.139704
1395.590943,-3701.029710,1628.453072,-75537.016103
1395.593499,8734.430116,-7550.100608,-81052.903688
1395.596054,-4441.235652,1776.494261,-72932.291410
1395.598610,-1480.411884,-3256.906145,-76456.330700
1395.601166,-296.082377,-6365.771101,-83197.971083
1395.603721,-1480.411884,3552.988522,-76762.768900
1395.606277,-1776.494261,1480.411884,-78141.740796
1395.608833,-888.247130,3997.112087,-73698.386908
1395.611389,-444.123565,-1924.535449,-77222.426198
1395.613944,3552.988522,1480.411884,-74617.701505
1395.616500,7550.100608,-4145.153275,-80440.027290
1395.619056,-3404.947333,-1628.453072,-75383.797003
1395.621611,-2664.741391,-3552.988522,-72625.853210
1395.624167,-3701.029710,1332.370696,-76456.330700
1395.626723,8586.388927,3256.906145,-76609.549800
1395.629278,-1332.370696,-3552.988522,-80133.589091
1395.631834,7698.141797,-3552.988522,-77528.864398
1395.634390,-14952.160028,11399.171507,-69867.909418
1395.636945,-8882.471304,-5329.482782,-71706.538613
1395.639501,9030.512492,-1776.494261,-81512.560987
1395.642057,-22798.343014,30348.443622,-62819.830836
1395.644613,9030.512492,2812.782580,-78294.959896
1395.647168,-14508.036463,17024.736666,-67416.403824
1395.649724,-13767.830521,13175.665768,-66037.431928
1395.652280,4441.235652,-4441.235652,-84270.504780
1395.654835,-5773.606348,15840.407159,-70174.347617
1395.657391,-9770.718434,6513.812290,-73545.167808
1395.659947,2664.741391,296.082377,-76915.987999
1395.662502,-8142.265362,10955.047942,-72625.853210
1395.665058,-10214.842000,9770.718434,-75996.673402
1395.667614,-1332.370696,4737.318029,-79061.055394
1395.670169,-3997.112087,8290.306550,-69255.033019
1395.672727,-7254.018232,6365.771101,-72932.291410
1395.675286,-4145.153275,6365.771101,-73698.386908
1395.677844,-17468.860231,8586.388927,-76456.330700
1395.680402,-6957.935855,10510.924376,-77069.207099
1395.682960,-1924.535449,5773.606348,-77069.207099
1395.685518,-6809.894666,9622.677246,-71859.757712
1395.688076,-1924.535449,10214.842000,-72625.853210
1395.690634,-12435.459826,3997.112087,-77222.426198
1395.693192,-17616.901420,14359.995275,-71706.538613
1395.695750,5033.400406,888.247130,-77988.521696
1395.698308,-11991.336260,4293.194464,-78141.740796
1395.700866,3256.906145,2072.576638,-75537.016103
1395.703424,9770.718434,8438.347739,-74617.701505
1395.705982,-24278.754898,11103.089130,-67263.184724
1395.708540,22206.178260,-18653.189738,-83504.409282
1395.711098,7994.224174,2368.659014,-75383.797003
1395.713656,-10510.924376,11399.171507,-65271.336430
1395.716214,13175.665768,-13619.789333,-88100.982270
1395.718772,-10807.006753,11251.130318,-73085.510509
1395.721330,444.123565,2960.823768,-74924.139704
1395.723888,2368.659014,-7698.141797,-83044.751983
1395.726446,-5181.441594,4885.359217,-72012.976812
1395.729004,3849.070898,-444.123565,-74158.044206
1395.731562,5181.441594,-2812.782580,-77988.521696
1395.734120,-1776.494261,2960.823768,-74770.920605
1395.736678,-6809.894666,9770.718434,-73391.948708
1395.739236,4737.318029,1332.370696,-78294.959896
1395.741795,3404.947333,-444.123565,-76609.549800
1395.744353,-2960.823768,2072.576638,-77682.083497
1395.746911,2220.617826,2960.823768,-71553.319513
1395.749469,2368.659014,-3849.070898,-71859.757712
1395.752027,-7550.100608,-296.082377,-74464.482406
1395.754585,2516.700203,-4589.276840,-81512.560987
1395.757143,5773.606348,592.164754,-78294.959896
1395.759701,-4589.276840,11991.336260,-71859.757712
1395.762259,-888.247130,-2664.741391,-75537.016103
1395.764817,1480.411884,-1184.329507,-76456.330700
1395.767375,-16284.530724,4293.194464,-67876.061123
1395.769933,15840.407159,-9178.553681,-87794.544071
1395.772491,-20281.642811,30348.443622,-64352.021832
1395.775051,-1332.370696,5181.441594,-73391.948708
1395.777612,2516.700203,5921.647536,-73391.948708
1395.780172,-18505.148550,23834.631332,-58989.353346
1395.782733,-5625.565159,7550.100608,-75383.797003
1395.785293,-2368.659014,2960.823768,-75996.673402
1395.787854,-4589.276840,5773.606348,-72166.195912
1395.790414,-5773.606348,4145.153275,-74311.263306
1395.792974,-148.041188,4885.359217,-77375.645298
1395.795535,-13471.748144,10362.883188,-73851.606007
1395.798095,-4293.194464,1628.453072,-77835.302597
1395.800656,2220.617826,-3552.988522,-77222.426198
1395.803216,-5625.565159,7550.100608,-75077.358804
1395.805777,-6809.894666,12583.501014,-73851.606007
1395.808337,-10362.883188,6809.894666,-73698.386908
1395.810897,-12139.377449,13767.830521,-64658.460031
1395.813458,4589.276840,3997.112087,-74311.263306
1395.816018,-5625.565159,13175.665768,-75996.673402
1395.818579,-4293.194464,12879.583391,-69408.252119
1395.821139,-16728.654289,6069.688724,-74770.920605
1395.823700,2664.741391,1332.370696,-77835.302597
1395.826260,-5921.647536,13471.748144,-65271.336430
1395.828820,1776.494261,1184.329507,-73698.386908
1395.831381,2072.576638,13323.706956,-72012.976812
1395.833941,-7698.141797,4589.276840,-71246.881314
1395.836502,11843.295072,-15396.283594,-84117.285680
1395.839062,-14211.954086,8142.265362,-67876.061123
1395.841623,11843.295072,-11251.130318,-82431.875585
1395.844183,6809.894666,-2368.659014,-77528.864398
1395.846744,-5625.565159,7698.141797,-72012.976812
1395.849304,4145.153275,-2664.741391,-77988.521696
1395.851864,1036.288319,6217.729913,-68029.280222
1395.854425,-7402.059420,3997.112087,-73391.948708
1395.856985,4293.194464,-4293.194464,-79827.150892
1395.859546,4145.153275,-888.247130,-75383.797003
1395.862106,-5329.482782,4885.359217,-72625.853210
1395.864667,-3552.988522,3849.070898,-76915.987999
1395.867227,3552.988522,-1184.329507,-76915.987999
1395.869787,-2516.700203,1332.370696,-73851.606007
1395.872348,12731.542202,-2812.782580,-77835.302597
1395.874908,-3849.070898,592.164754,-77375.645298
1395.877471,-6661.853478,-296.082377,-71553.319513
1395.880033,3256.906145,-4885.359217,-75230.577904
1395.882596,-3552.988522,3701.029710,-73851.606007
1395.885158,1776.494261,0.000000,-76149.892501
1395.887721,10510.924376,4885.359217,-77682.083497
1395.890283,-14211.954086,10214.842000,-70940.443115
1395.892845,14211.954086,-11843.295072,-82125.437386
1395.895408,-2220.617826,8142.265362,-71093.662214
1395.897970,-26647.413912,15692.365970,-70327.566716
1395.900533,13915.871710,-5773.606348,-91778.240660
1395.903095,-23982.672521,24130.713709,-71093.662214
1395.905658,-1924.535449,592.164754,-84423.723880
1395.908220,-8438.347739,2960.823768,-77835.302597
1395.910783,-13915.871710,10214.842000,-72779.072310
1395.913345,7846.182985,-1628.453072,-80286.808190
1395.915908,-7698.141797,4589.276840,-77375.645298
1395.918470,-9030.512492,8882.471304,-72012.976812
1395.921033,2072.576638,8438.347739,-73391.948708
1395.923595,-12287.418637,12879.583391,-75077.358804
1395.926157,0.000000,296.082377,-81512.560987
1395.928720,-8142.265362,4885.359217,-76303.111601
1395.931282,-4441.235652,8882.471304,-73545.167808
1395.933845,-14359.995275,7698.141797,-74617.701505
1395.936407,-2072.576638,6365.771101,-78601.398095
1395.938970,-2516.700203,8142.265362,-75077.358804
1395.941532,-7994.224174,11103.089130,-74311.263306
1395.944095,-3256.906145,12583.501014,-75843.454302
1395.946657,-9622.677246,1776.494261,-77528.864398
1395.949220,-8734.430116,9326.594869,-75077.358804
1395.951782,-4737.318029,3404.947333,-71859.757712
1395.954345,7402.059420,3997.112087,-78294.959896
1395.956907,-18653.189738,18061.024985,-71093.662214
1395.959471,11991.336260,-18209.066173,-86722.010374
1395.962035,-1184.329507,-2960.823768,-76915.987999
1395.964600,-20577.725188,9918.759623,-65118.117330
1395.967164,19393.395680,-15544.324782,-83964.066581
1395.969728,-1184.329507,5033.400406,-69408.252119
1395.972292,-5477.523971,4293.194464,-72779.072310
1395.974857,7254.018232,-296.082377,-74311.263306
1395.977421,-3404.947333,8882.471304,-68182.499322
1395.979985,1480.411884,-1628.453072,-74004.825107
1395.982549,3108.864956,296.082377,-76303.111601
1395.985114,-4441.235652,2664.741391,-71706.538613
1395.987678,1776.494261,-4145.153275,-76915.987999
1395.990242,-4737.318029,6513.812290,-72166.195912
1395.992806,2516.700203,3552.988522,-74464.482406
1395.995371,-1924.535449,592.164754,-75843.454302
1395.997935,11991.336260,-4737.318029,-75077.358804
1396.000499,7550.100608,-3849.070898,-77069.207099
1396.003063,-6661.853478,-592.164754,-72932.291410
1396.005628,1628.453072,-7402.059420,-79214.274493
1396.008192,888.247130,3256.906145,-72779.072310
1396.010756,3849.070898,-444.123565,-74924.139704
1396.013320,11695.253884,2072.576638,-76762.768900
1396.015885,-16876.695478,10955.047942,-69101.813920
1396.018449,23538.548956,-13027.624579,-84270.504780
1396.021013,-25315.043216,14063.912898,-69255.033019
1396.023577,-8882.471304,3256.906145,-78448.178995
1396.026142,9622.677246,1480.411884,-82431.875585
1396.028706,-26499.372724,18357.107362,-69408.252119
1396.031270,9622.677246,-1628.453072,-84730.162079
1396.033834,-7846.182985,12583.501014,-72166.195912
1396.036399,-13915.871710,7846.182985,-73851.606007
1396.038963,6069.688724,148.041188,-79673.931792
1396.041527,-6513.812290,2368.659014,-78294.959896
1396.044091,-5921.647536,7402.059420,-75077.358804
1396.046656,-3849.070898,5181.441594,-78141.740796
1396.049220,-14359.995275,9178.553681,-77222.426198
1396.051784,740.205942,3108.864956,-75230.577904
1396.054348,-1628.453072,1628.453072,-77375.645298
1396.056913,-4737.318029,5477.523971,-77528.864398
1396.059477,-10955.047942,7698.141797,-78754.617194
1396.062042,-2072.576638,5033.400406,-82278.656485
1396.064606,-7550.100608,8438.347739,-74617.701505
1396.067171,-8734.430116,12287.418637,-73851.606007
1396.069736,-2220.617826,9326.594869,-78448.178995
1396.072301,-11251.130318,7254.018232,-78294.959896
1396.074866,-4885.359217,3108.864956,-75383.797003
1396.077430,-7698.141797,4441.235652,-74004.825107
1396.079995,2220.617826,1628.453072,-76149.892501
1396.082560,10955.047942,9474.636058,-74311.263306
1396.085125,-9770.718434,5181.441594,-70327.566716
1396.087689,16580.613101,-14359.995275,-82278.656485
1396.090254,-17172.777854,16580.613101,-59755.448844
1396.092819,6661.853478,-10658.965565,-81512.560987
1396.095384,11547.212695,-7698.141797,-83657.628382
1396.097948,-8882.471304,11695.253884,-69714.690318
1396.100513,5773.606348,-444.123565,-77988.521696
1396.103078,888.247130,4293.194464,-71859.757712
1396.105643,-3404.947333,-1628.453072,-75996.673402
1396.108207,6217.729913,-296.082377,-78601.398095
1396.110772,296.082377,2812.782580,-72166.195912
1396.113337,148.041188,5773.606348,-73085.510509
1396.115902,-9030.512492,3552.988522,-74924.139704
1396.118466,1628.453072,-5625.565159,-78907.836294
1396.121031,3108.864956,5773.606348,-69714.690318
1396.123596,4589.276840,1924.535449,-75690.235202
1396.126161,6365.771101,-10362.883188,-84576.942979
1396.128726,-9178.553681,592.164754,-72166.195912
1396.131290,-1036.288319,-1184.329507,-72012.976812
1396.133855,6809.894666,-2812.782580,-76456.330700
1396.136420,-5329.482782,12731.542202,-71093.662214
1396.138985,5625.565159,1480.411884,-76609.549800
1396.141549,2516.700203,2220.617826,-76149.892501
1396.144114,-16580.613101,-3701.029710,-70021.128517
1396.146679,6365.771101,-8142.265362,-85036.600278
1396.149244,-7254.018232,18653.189738,-71400.100414
1396.151808,-11547.212695,9918.759623,-71246.881314
1396.154373,1628.453072,5329.482782,-78907.836294
1396.156938,-18209.066173,22058.137072,-62360.173537
1396.159503,296.082377,444.123565,-77988.521696
1396.162067,-3108.864956,2960.823768,-77069.207099
1396.164632,-8882.471304,9770.718434,-71400.100414
1396.167196,-148.041188,2368.659014,-76456.330700
1396.169761,-888.247130,7994.224174,-73085.510509
1396.172325,-12435.459826,8734.430116,-74158.044206
1396.174890,-3404.947333,5181.441594,-78601.398095
1396.177454,-3701.029710,3404.947333,-74004.825107
1396.180019,-9178.553681,5329.482782,-72932.291410
1396.182583,-14063.912898,9474.636058,-74770.920605
1396.185148,-148.041188,1184.329507,-80593.246390
1396.187712,-14063.912898,11843.295072,-75690.235202
1396.190277,-8142.265362,9918.759623,-74924.139704
1396.192841,3404.947333,9918.759623,-73698.386908
1396.195406,-18061.024985,18801.230927,-67416.403824
1396.197970,3849.070898,-3256.906145,-77528.864398
1396.200534,-9918.759623,4293.194464,-73545.167808
1396.203099,888.247130,5921.647536,-73851.606007
1396.205663,4885.359217,12139.377449,-74158.044206
1396.208228,-8882.471304,4589.276840,-70480.785816
1396.210792,22354.219448,-12435.459826,-77835.302597
1396.213357,-22650.301825,13175.665768,-64352.021832
1396.215921,9918.759623,-11399.171507,-84576.942979
1396.218486,11991.336260,-11547.212695,-86875.229473
1396.221050,-9770.718434,12583.501014,-69714.690318
1396.223615,7254.018232,-2072.576638,-78141.740796
1396.226179,592.164754,-2516.700203,-76609.549800
1396.228744,-5773.606348,6217.729913,-70787.224015
1396.231308,9622.677246,-740.205942,-76149.892501
1396.233873,0.000000,-888.247130,-74617.701505
1396.236437,1480.411884,3256.906145,-74158.044206
1396.239002,-10955.047942,5181.441594,-73851.606007
1396.241566,2220.617826,-1184.329507,-81359.341888
1396.244130,9918.759623,592.164754,-76149.892501
1396.246695,-444.123565,1332.370696,-72932.291410
1396.249259,6217.729913,-11695.253884,-78754.617194
1396.251824,-8586.388927,-2516.700203,-74311.263306
1396.254388,-1036.288319,2664.741391,-71706.538613
1396.256953,5033.400406,-7994.224174,-80286.808190
1396.259517,8734.430116,1332.370696,-77682.083497
1396.262082,-15100.201217,16876.695478,-67416.403824
1396.264646,20281.642811,-11991.336260,-80440.027290
1396.267211,-17764.942608,11547.212695,-68948.594820
1396.269775,-16876.695478,7698.141797,-74311.263306
1396.272340,11695.253884,-4145.153275,-89939.611465
1396.274905,-21465.972318,21021.848753,-72166.195912
1396.277469,888.247130,-3701.029710,-87028.448573
1396.280034,-10955.047942,8142.265362,-74770.920605
1396.282598,-3849.070898,4737.318029,-74158.044206
1396.285163,-296.082377,888.247130,-80286.808190
1396.287728,-7402.059420,4737.318029,-77835.302597
1396.290292,-5921.647536,7105.977043,-73851.606007
1396.292857,-13767.830521,7550.100608,-74770.920605
1396.295421,-7846.182985,2664.741391,-75843.454302
1396.297986,-1036.288319,1332.370696,-75383.797003
1396.300551,-8290.306550,8142.265362,-74158.044206
1396.303115,-2220.617826,3108.864956,-77682.083497
1396.305680,-10214.842000,5329.482782,-71859.757712
1396.308244,-6957.935855,13767.830521,-70940.443115
1396.310809,-1628.453072,9918.759623,-78141.740796
1396.313374,-2812.782580,12879.583391,-75996.673402
1396.315938,-12879.583391,13915.871710,-70634.004916
1396.318503,-1184.329507,-1036.288319,-76456.330700
1396.321067,-14508.036463,8586.388927,-70480.785816
1396.323632,4589.276840,-296.082377,-77682.083497
1396.326197,-1628.453072,2960.823768,-77835.302597
1396.328761,-15396.283594,10658.965565,-67109.965625
1396.331326,14211.954086,-14211.954086,-77988.521696
1396.333890,-8882.471304,8734.430116,-66497.089226
1396.336455,-444.123565,-3552.988522,-76915.987999
1396.339019,10807.006753,-11399.171507,-85649.476676
1396.341584,-3256.906145,13619.789333,-69561.471218
1396.344149,4885.359217,-1332.370696,-79367.493593
1396.346713,148.041188,296.082377,-74464.482406
1396.349278,148.041188,3849.070898,-71093.662214
1396.351842,2072.576638,2072.576638,-75383.797003
1396.354407,-1776.494261,1480.411884,-76915.987999
1396.356972,-1924.535449,4885.359217,-73391.948708
1396.359536,-9918.759623,-1036.288319,-78294.959896
1396.362101,1480.411884,-148.041188,-76149.892501
1396.364665,13915.871710,1036.288319,-77069.207099
1396.367230,296.082377,-1036.288319,-77069.207099
1396.369795,592.164754,-7105.977043,-77222.426198
1396.372360,-7994.224174,-1184.329507,-70021.128517
1396.374925,2960.823768,-2516.700203,-74617.701505
1396.377490,1184.329507,1924.535449,-78601.398095
1396.380055,10214.842000,-2220.617826,-81665.780087
1396.382620,-4737.318029,7402.059420,-74924.139704
1396.385185,-5921.647536,-10955.047942,-76303.111601
1396.387750,2960.823768,5329.482782,-73391.948708
1396.390315,-25463.084405,28275.866984,-62360.173537
1396.392880,16432.571912,-3552.988522,-89479.954166
1396.395445,-17764.942608,18505.148550,-73851.606007
1396.398010,-19393.395680,20133.601622,-63739.145434
1396.400575,2664.741391,-6365.771101,-82891.532884
1396.403140,-7698.141797,8734.430116,-70480.785816
1396.405705,-7698.141797,6809.894666,-74158.044206
1396.408271,1924.535449,5625.565159,-74924.139704
1396.410836,-6809.894666,10362.883188,-73238.729609
1396.413401,-7550.100608,8142.265362,-74924.139704
1396.415966,0.000000,4441.235652,-74004.825107
1396.418531,-5033.400406,9326.594869,-71093.662214
1396.421096,-3552.988522,5773.606348,-74924.139704
1396.423661,-7550.100608,6661.853478,-75843.454302
1396.426226,-9030.512492,9918.759623,-74004.825107
1396.428791,-13027.624579,7846.182985,-74311.263306
1396.431356,1480.411884,14508.036463,-74770.920605
1396.433921,-9622.677246,12879.583391,-74311.263306
1396.436486,-3701.029710,12731.542202,-70480.785816
1396.439051,-11991.336260,592.164754,-72472.634111
1396.441616,1924.535449,444.123565,-75996.673402
1396.444181,-18653.189738,11991.336260,-72779.072310
1396.446746,20133.601622,-13767.830521,-87028.448573
1396.449311,3997.112087,4885.359217,-70480.785816
1396.451876,-6809.894666,-1480.411884,-72932.291410
1396.454441,10362.883188,-4293.194464,-80440.027290
1396.457006,-6217.729913,9474.636058,-68795.375720
1396.459571,7550.100608,-8438.347739,-81972.218286
1396.462136,2220.617826,2368.659014,-74004.825107
1396.464701,-7994.224174,5921.647536,-70327.566716
1396.467266,8290.306550,-7698.141797,-82125.437386
1396.469831,4737.318029,-5329.482782,-79214.274493
1396.472394,-1184.329507,2220.617826,-79980.369991
1396.474959,3256.906145,1628.453072,-79214.274493
1396.477523,-2664.741391,3701.029710,-73851.606007
1396.480088,-7254.018232,4145.153275,-72779.072310
1396.482653,9178.553681,-4737.318029,-77528.864398
1396.485217,6661.853478,-5477.523971,-77528.864398
1396.487782,3552.988522,-1184.329507,-74617.701505
1396.490346,-3997.112087,-5477.523971,-79367.493593
1396.492911,-592.164754,-3256.906145,-78294.959896
1396.495476,2072.576638,-2664.741391,-76149.892501
1396.498040,12287.418637,2812.782580,-77528.864398
1396.500605,-7846.182985,14952.160028,-66650.308326
1396.503169,12139.377449,-7550.100608,-73851.606007
1396.505734,-7846.182985,6365.771101,-72472.634111
1396.508299,-21614.013506,23834.631332,-64811.679131
1396.510863,11547.212695,-888.247130,-88867.077768
1396.513428,-17172.777854,21762.054695,-71093.662214
1396.515993,-4293.194464,4145.153275,-77682.083497
1396.518557,-11251.130318,3108.864956,-75537.016103
1396.521122,-9178.553681,5329.482782,-74617.701505
1396.523686,1036.288319,3849.070898,-78754.617194
1396.526251,-5329.482782,5181.441594,-77222.426198
1396.528816,-4885.359217,9918.759623,-72166.195912
1396.531380,-8290.306550,8438.347739,-73545.167808
1396.533945,-6513.812290,3108.864956,-76762.768900
1396.536509,1776.494261,5921.647536,-75383.797003
1396.539074,-6069.688724,7402.059420,-73545.167808
1396.541639,-7698.141797,4885.359217,-74924.139704
1396.544203,-13915.871710,7550.100608,-76303.111601
1396.546768,-11103.089130,13471.748144,-75537.016103
1396.549332,-2812.782580,10658.965565,-76456.330700
1396.551897,-7846.182985,10807.006753,-75077.358804
1396.554462,-1628.453072,12435.459826,-74770.920605
1396.557026,-16580.613101,-296.082377,-76303.111601
1396.559591,740.205942,-2960.823768,-81818.999186
1396.562155,-18653.189738,15248.242405,-71706.538613
1396.564720,16432.571912,-14804.118840,-87488.105872
1396.567285,6957.935855,2072.576638,-72472.634111
1396.569849,-9178.553681,0.000000,-72012.976812
1396.572414,8438.347739,-5181.441594,-82891.532884
1396.574979,1184.329507,6069.688724,-68488.937521
1396.577543,1776.494261,-592.164754,-77528.864398
1396.580108,9030.512492,2664.741391,-77528.864398
1396.582673,-6957.935855,6809.894666,-72166.195912
1396.585238,-3552.988522,-2812.782580,-77069.207099
1396.587803,3256.906145,-6809.894666,-80133.589091
1396.590367,-5477.523971,3404.947333,-73851.606007
1396.592932,4145.153275,3997.112087,-75537.016103
1396.595497,-1480.411884,3997.112087,-76149.892501
1396.598062,-7550.100608,444.123565,-76149.892501
1396.600627,6069.688724,-296.082377,-73545.167808
1396.603191,6513.812290,-2960.823768,-76915.987999
1396.605756,-2072.576638,-3256.906145,-77528.864398
1396.608321,-444.123565,-6513.812290,-78294.959896
1396.610886,-3701.029710,-5921.647536,-75230.577904
1396.613451,2368.659014,12731.542202,-69867.909418
1396.616015,3404.947333,0.000000,-80286.808190
1396.618580,5477.523971,1776.494261,-78141.740796
1396.621145,-17912.983796,0.000000,-68948.594820
1396.623710,3256.906145,-10658.965565,-86109.133975
1396.626275,-20725.766376,29904.320057,-67109.965625
1396.628839,8734.430116,5625.565159,-77222.426198
1396.631404,-592.164754,7846.182985,-75077.358804
1396.633969,-20281.642811,21762.054695,-61134.420740
1396.636534,-5773.606348,-5625.565159,-81818.999186
1396.639099,-5477.523971,10510.924376,-72779.072310
1396.641663,-12435.459826,10658.965565,-68948.594820
1396.644228,-296.082377,4145.153275,-74464.482406
1396.646793,3256.906145,8142.265362,-74770.920605
1396.649358,-11399.171507,5477.523971,-70480.785816
1396.651923,-6513.812290,8586.388927,-69714.690318
1396.654487,5329.482782,3256.906145,-75077.358804
1396.657052,-1036.288319,4589.276840,-77375.645298
1396.659617,-8290.306550,12435.459826,-70787.224015
1396.662182,-16876.695478,9918.759623,-72166.195912
1396.664747,-148.041188,10362.883188,-75843.454302
1396.667311,-1184.329507,13915.871710,-72779.072310
1396.669876,-12435.459826,13619.789333,-73851.606007
1396.672441,3404.947333,1480.411884,-75077.358804
1396.675006,-17616.901420,3997.112087,-75230.577904
1396.677570,-5625.565159,1776.494261,-78448.178995
1396.680134,19837.519246,2664.741391,-84730.162079
1396.682698,-8290.306550,10510.924376,-66497.089226
1396.685262,2072.576638,-7994.224174,-76456.330700
1396.687826,5625.565159,1776.494261,-74924.139704
1396.690390,-11695.253884,5921.647536,-69867.909418
1396.692954,15248.242405,-11103.089130,-83964.066581
1396.695518,592.164754,6513.812290,-70634.004916
1396.698082,-2368.659014,7550.100608,-71553.319513
1396.700646,3997.112087,-10807.006753,-83657.628382
1396.703210,-6069.688724,5477.523971,-74464.482406
1396.705774,6661.853478,-444.123565,-72625.853210
1396.708338,-2368.659014,3849.070898,-71246.881314
1396.710902,2516.700203,2960.823768,-75690.235202
1396.713466,-2516.700203,296.082377,-73698.386908
1396.716030,4441.235652,-296.082377,-73545.167808
1396.718594,7254.018232,-2812.782580,-80746.465489
1396.721158,1480.411884,-3256.906145,-79980.369991
1396.723722,-7846.182985,-3404.947333,-77222.426198
1396.726286,-1776.494261,-6217.729913,-74924.139704
1396.728850,10214.842000,6957.935855,-72319.415011
1396.731414,-7402.059420,7846.182985,-74158.044206
1396.733978,12879.583391,-3849.070898,-82278.656485
1396.736542,-24722.878463,9770.718434,-70480.785816
1396.739106,-1628.453072,-11695.253884,-89326.735067
1396.741670,-12879.583391,19393.395680,-71553.319513
1396.744234,-4885.359217,7105.977043,-75077.358804
1396.746798,12435.459826,6809.894666,-79673.931792
1396.749362,-24278.754898,20429.683999,-65884.212828
1396.751926,-2516.700203,1628.453072,-76456.330700
1396.754490,-1332.370696,-2664.741391,-75230.577904
1396.757054,-5329.482782,9622.677246,-73391.948708
1396.759618,-740.205942,9770.718434,-75230.577904
1396.762182,1776.494261,9326.594869,-75383.797003
1396.764746,-12731.542202,6513.812290,-71553.319513
1396.767310,-5181.441594,2960.823768,-73851.606007
1396.769874,-5773.606348,3552.988522,-77682.083497
1396.772438,-1184.329507,8142.265362,-77988.521696
1396.775002,-7254.018232,15544.324782,-73238.729609
1396.777566,-21614.013506,8586.388927,-74311.263306
1396.780129,-888.247130,9030.512492,-73238.729609
1396.782693,-7550.100608,13323.706956,-71553.319513
1396.785256,1332.370696,11103.089130,-77835.302597
1396.787820,-11251.130318,7254.018232,-71706.538613
1396.790383,-5773.606348,-1776.494261,-75537.016103
1396.792947,3404.947333,13619.789333,-68795.375720
1396.795510,1776.494261,-2072.576638,-76303.111601
1396.798073,16284.530724,-9178.553681,-81818.999186
1396.800637,-17024.736666,5033.400406,-66956.746525
1396.803200,3404.947333,-9326.594869,-78754.617194
1396.805764,4589.276840,1924.535449,-70480.785816
1396.808327,1480.411884,0.000000,-77682.083497
1396.810891,10510.924376,2960.823768,-78601.398095
1396.813454,-6069.688724,5921.647536,-72012.976812
1396.816018,-2516.700203,-4441.235652,-76149.892501
1396.818581,4293.194464,-4885.359217,-75996.673402
1396.821144,5773.606348,-888.247130,-77835.302597
1396.823708,7846.182985,7402.059420,-77069.207099
1396.826271,-4441.235652,6513.812290,-72012.976812
1396.828835,6513.812290,-4441.235652,-76915.987999
1396.831398,-1036.288319,-1332.370696,-68488.937521
1396.833962,17764.942608,-2960.823768,-72012.976812
1396.836525,888.247130,-4441.235652,-77835.302597
1396.839089,-592.164754,-3552.988522,-76149.892501
1396.841652,-12287.418637,4145.153275,-72166.195912
1396.844216,17616.901420,-4737.318029,-81665.780087
1396.846779,-6513.812290,12287.418637,-73851.606007
1396.849342,-5773.606348,-5773.606348,-74617.701505
1396.851906,14063.912898,1776.494261,-73698.386908
1396.854469,-35529.885216,28571.949361,-59449.010645
1396.857033,16432.571912,-3701.029710,-86722.010374
1396.859596,-7254.018232,17172.777854,-70327.566716
1396.862160,-17024.736666,22058.137072,-66956.746525
1396.864723,-3256.906145,-2220.617826,-83657.628382
1396.867287,-8882.471304,6365.771101,-70940.443115
1396.869850,-13619.789333,9474.636058,-68488.937521
1396.872414,3404.947333,2960.823768,-77375.645298
1396.874977,592.164754,6957.935855,-80133.589091
1396.877540,-6957.935855,9918.759623,-72932.291410
1396.880104,-10955.047942,148.041188,-74004.825107
1396.882667,-4441.235652,4145.153275,-75690.235202
1396.885230,4885.359217,5329.482782,-78754.617194
1396.887794,-10807.006753,11103.089130,-75383.797003
1396.890357,-12287.418637,11695.253884,-71246.881314
1396.892920,-6069.688724,9622.677246,-74004.825107
1396.895483,-4293.194464,10214.842000,-76456.330700
1396.898047,148.041188,13767.830521,-74158.044206
1396.900610,-4737.318029,5625.565159,-73085.510509
1396.903173,-7254.018232,-2368.659014,-80286.808190
1396.905737,-12731.542202,15988.448347,-68642.156621
1396.908300,9326.594869,-7254.018232,-78601.398095
1396.910863,13175.665768,-7254.018232,-85496.257577
1396.913426,-16580.613101,4737.318029,-71706.538613
1396.915990,9622.677246,-12139.377449,-84423.723880
1396.918553,-3849.070898,9030.512492,-63892.364533
1396.921116,-1332.370696,-5329.482782,-77682.083497
1396.923680,11399.171507,-148.041188,-82125.437386
1396.926243,1332.370696,9030.512492,-75996.673402
1396.928806,-8290.306550,-1332.370696,-76303.111601
1396.931369,-444.123565,-8142.265362,-76762.768900
1396.933933,-4293.194464,3256.906145,-74464.482406
1396.936496,3552.988522,7698.141797,-72166.195912
1396.939059,-2072.576638,1776.494261,-74004.825107
1396.941622,-2220.617826,-2516.700203,-79061.055394
1396.944186,1184.329507,3701.029710,-70174.347617
1396.946749,16136.489536,-1924.535449,-72319.415011
1396.949312,-9918.759623,-2368.659014,-74770.920605
1396.951876,888.247130,-10066.800811,-79061.055394
1396.954439,-6069.688724,9622.677246,-72625.853210
1396.957002,6513.812290,148.041188,-75077.358804
1396.959565,3701.029710,5033.400406,-75077.358804
1396.962129,-9178.553681,592.164754,-69714.690318
1396.964692,11547.212695,-592.164754,-76762.768900
1396.967255,-31828.855506,30348.443622,-59295.791545
1396.969818,11547.212695,3849.070898,-77375.645298
1396.972382,4145.153275,5329.482782,-73391.948708
1396.974945,-18061.024985,23686.590144,-66037.431928
1396.977508,-296.082377,-2220.617826,-81359.341888
1396.980072,-4589.276840,6365.771101,-73391.948708
1396.982635,-13619.789333,11547.212695,-69255.033019
1396.985161,5625.565159,592.164754,-78601.398095
1396.987688,1184.329507,7402.059420,-80746.465489
1396.990214,-11695.253884,10066.800811,-76609.549800
1396.992741,-10955.047942,3108.864956,-74924.139704
1396.995268,-6957.935855,5181.441594,-73085.510509
1396.997794,-12435.459826,4737.318029,-76762.768900
1397.000321,-14952.160028,12583.501014,-78754.617194
1397.002847,-5921.647536,10658.965565,-80440.027290
1397.005374,-7402.059420,11991.336260,-74158.044206
1397.007900,-19837.519246,15840.407159,-71706.538613
1397.010427,8734.430116,-2812.782580,-77528.864398
1397.012953,-11843.295072,7105.977043,-71859.757712
1397.015480,-7550.100608,2516.700203,-76915.987999
1397.018006,20725.766376,1776.494261,-76303.111601
1397.020533,-16284.530724,13323.706956,-60061.887043
1397.023060,23242.466579,-13175.665768,-76609.549800
1397.025586,-12139.377449,3256.906145,-70787.224015
1397.028113,-5033.400406,2664.741391,-74004.825107
1397.030639,11843.295072,-10658.965565,-81512.560987
1397.033166,-8586.388927,7994.224174,-72012.976812
1397.035692,7846.182985,-592.164754,-77988.521696
1397.038219,1776.494261,4293.194464,-74158.044206
1397.040745,-5921.647536,1332.370696,-76762.768900
1397.043272,5181.441594,0.000000,-73698.386908
1397.045799,-1332.370696,2664.741391,-74464.482406
1397.048325,888.247130,4145.153275,-74770.920605
1397.050852,-2960.823768,-1332.370696,-76915.987999
1397.053378,3256.906145,-4737.318029,-81972.218286
1397.055905,2664.741391,-3997.112087,-79520.712692
1397.058431,4885.359217,-3552.988522,-75230.577904
1397.060958,-592.164754,-6217.729913,-75383.797003
1397.063484,-5329.482782,-7105.977043,-77222.426198
1397.066011,8438.347739,-148.041188,-79827.150892
1397.068538,-9770.718434,11251.130318,-72779.072310
1397.071064,18209.066173,-10066.800811,-82585.094684
1397.073591,-13767.830521,11103.089130,-71706.538613
1397.076117,-25611.125593,10955.047942,-72625.853210
1397.078644,7105.977043,-3997.112087,-88254.201370
1397.081170,-11843.295072,19393.395680,-70480.785816
1397.083697,-6661.853478,11695.253884,-74158.044206
1397.086231,444.123565,-1776.494261,-80440.027290
1397.088765,-15100.201217,8734.430116,-73391.948708
1397.091299,-9474.636058,6069.688724,-77069.207099
1397.093833,2664.741391,2072.576638,-79061.055394
1397.096368,-4441.235652,8142.265362,-72319.415011
1397.098902,-3404.947333,7994.224174,-72166.195912
1397.101436,-6217.729913,5329.482782,-74924.139704
1397.103970,-3701.029710,4293.194464,-74924.139704
1397.106504,-5181.441594,9474.636058,-70327.566716
1397.109038,-9622.677246,6661.853478,-71553.319513
1397.111572,-8290.306550,11547.212695,-73545.167808
1397.114107,-3552.988522,11399.171507,-76149.892501
1397.116641,-12583.501014,16432.571912,-75077.358804
1397.119175,-3256.906145,2812.782580,-77528.864398
1397.121709,-4737.318029,3404.947333,-74311.263306
1397.124243,-8290.306550,-740.205942,-76149.892501
1397.126777,7402.059420,6513.812290,-76456.330700
1397.129311,-4293.194464,13915.871710,-64045.583633
1397.131846,4589.276840,-10362.883188,-79061.055394
1397.134380,592.164754,592.164754,-75843.454302
1397.136914,-8586.388927,5625.565159,-68488.937521
1397.139448,7254.018232,-11695.253884,-84117.285680
1397.141982,-1924.535449,2664.741391,-75690.235202
1397.144516,-888.247130,5773.606348,-74158.044206
1397.147050,4737.318029,740.205942,-75690.235202
1397.149585,-7550.100608,-1628.453072,-77222.426198
1397.152119,-1036.288319,5181.441594,-72625.853210
1397.154653,5329.482782,6069.688724,-76149.892501
1397.157187,1480.411884,-1776.494261,-80593.246390
1397.159721,-3849.070898,888.247130,-74924.139704
1397.162255,7105.977043,-296.082377,-71553.319513
1397.164789,1628.453072,-4441.235652,-76456.330700
1397.167324,-2664.741391,-3256.906145,-75383.797003
1397.169858,8290.306550,-9622.677246,-77988.521696
1397.172392,-3997.112087,10214.842000,-70480.785816
1397.174926,-4737.318029,592.164754,-72625.853210
1397.177460,10066.800811,-2664.741391,-82278.656485
1397.179994,-10955.047942,7994.224174,-70634.004916
1397.182528,3552.988522,-5033.400406,-83964.066581
1397.185063,-24574.837274,27387.619854,-62666.611736
1397.187603,3108.864956,8142.265362,-70480.785816
1397.190144,7698.141797,5477.523971,-79061.055394
1397.192685,-9474.636058,18061.024985,-69867.909418
1397.195225,-7698.141797,148.041188,-75996.673402
1397.197766,-6809.894666,5773.606348,-70634.004916
1397.200307,-7254.018232,11251.130318,-70174.347617
1397.202847,2516.700203,2072.576638,-80440.027290
1397.205388,296.082377,9918.759623,-76149.892501
1397.207929,-3404.947333,1776.494261,-76456.330700
1397.210469,-9770.718434,7105.977043,-72779.072310
1397.213010,-1924.535449,5033.400406,-74617.701505
1397.215551,-2516.700203,9326.594869,-76149.892501
1397.218091,-16580.613101,17764.942608,-71093.662214
1397.220632,-4737.318029,8290.306550,-72319.415011
1397.223173,-7105.977043,10066.800811,-72319.415011
1397.225713,-5921.647536,13767.830521,-74617.701505
1397.228254,-10807.006753,7550.100608,-70174.347617
1397.230795,-1628.453072,296.082377,-77069.207099
1397.233335,-7254.018232,17764.942608,-70327.566716
1397.235876,3997.112087,-5477.523971,-78907.836294
1397.238417,12879.583391,-8586.388927,-81665.780087
1397.240957,-14656.077652,6069.688724,-67569.622924
1397.243498,8290.306550,-11399.171507,-84117.285680
1397.246039,-1184.329507,5477.523971,-66956.746525
1397.248580,1480.411884,-3997.112087,-76915.987999
1397.251120,11103.089130,3404.947333,-77375.645298
1397.253661,1184.329507,3256.906145,-79214.274493
1397.256202,-6809.894666,-592.164754,-76762.768900
1397.258742,4589.276840,-1036.288319,-72779.072310
1397.261283,3256.906145,3849.070898,-73391.948708
1397.263824,2368.659014,7698.141797,-70327.566716
1397.266364,296.082377,1332.370696,-74158.044206
1397.268875,1480.411884,-8290.306550,-82125.437386
1397.271385,-1628.453072,4145.153275,-74311.263306
1397.273895,5921.647536,-4441.235652,-74311.263306
1397.276405,5033.400406,-9326.594869,-75383.797003
1397.278915,-8586.388927,1924.535449,-73545.167808
1397.281426,8734.430116,-4589.276840,-82431.875585
1397.283936,-3701.029710,11103.089130,-73391.948708
1397.286446,7846.182985,-4293.194464,-74617.701505
1397.288956,-2220.617826,6957.935855,-76456.330700
1397.291467,-25907.207970,25907.207970,-65118.117330
1397.293977,8438.347739,-2812.782580,-88560.639569
1397.296487,-17172.777854,15100.201217,-71859.757712
1397.298997,-11991.336260,17024.736666,-66803.527426
1397.301507,2072.576638,-740.205942,-82431.875585
1397.304018,-17024.736666,11695.253884,-72319.415011
1397.306528,-8882.471304,5625.565159,-75996.673402
1397.309038,-8882.471304,3552.988522,-76915.987999
1397.311548,-296.082377,6365.771101,-76303.111601
1397.314059,-4885.359217,4441.235652,-77835.302597
1397.316569,-4737.318029,2960.823768,-79367.493593
1397.319079,-592.164754,5773.606348,-77069.207099
1397.321589,-18653.189738,7550.100608,-74464.482406
1397.324099,-444.123565,5921.647536,-78907.836294
1397.326610,-14359.995275,12435.459826,-78601.398095
1397.329120,-6069.688724,12879.583391,-78141.740796
1397.331630,296.082377,10066.800811,-75690.235202
1397.334140,-16580.613101,3256.906145,-73698.386908
1397.336651,-2072.576638,2516.700203,-75383.797003
1397.339161,-7698.141797,16432.571912,-71859.757712
1397.341671,5921.647536,-11251.130318,-84730.162079
1397.344181,15100.201217,-5773.606348,-80440.027290
1397.346691,-15100.201217,6365.771101,-66497.089226
1397.349202,10510.924376,-9918.759623,-83351.190182
1397.351712,-5477.523971,6513.812290,-68488.937521
1397.354222,-1332.370696,-2220.617826,-76609.549800
1397.356732,11991.336260,-1184.329507,-77682.083497
1397.359243,-7254.018232,6661.853478,-75537.016103
1397.361753,0.000000,-2812.782580,-80440.027290
1397.364263,5033.400406,-888.247130,-78141.740796
1397.366773,-3701.029710,2812.782580,-73085.510509
1397.369295,6217.729913,6069.688724,-71859.757712
1397.371817,-4145.153275,-2664.741391,-73698.386908
1397.374338,7402.059420,-1480.411884,-77988.521696
1397.376860,-2664.741391,1628.453072,-75383.797003
1397.379382,4589.276840,-6661.853478,-77835.302597
1397.381903,7698.141797,-8882.471304,-73698.386908
1397.384425,-7254.018232,3404.947333,-72779.072310
1397.386947,-2960.823768,148.041188,-79214.274493
1397.389468,8290.306550,0.000000,-80746.465489
1397.391990,-15248.242405,1776.494261,-69867.909418
1397.394512,11695.253884,2072.576638,-76762.768900
1397.397033,-24278.754898,27683.702231,-64811.679131
1397.399555,1776.494261,3849.070898,-79214.274493
1397.402077,-3849.070898,12583.501014,-70480.785816
1397.404598,-17320.819043,18505.148550,-67109.965625
1397.407120,3849.070898,1480.411884,-76609.549800
1397.409642,-4737.318029,4145.153275,-71093.662214
1397.412163,-15100.201217,12287.418637,-70480.785816
1397.414685,-592.164754,6661.853478,-78448.178995
1397.417207,-3256.906145,6809.894666,-74617.701505
1397.419729,-1924.535449,4885.359217,-72779.072310
1397.422250,-3552.988522,5181.441594,-75230.577904
1397.424772,-9918.759623,6513.812290,-77222.426198
1397.427294,-5033.400406,9622.677246,-75843.454302
1397.429815,-17320.819043,17172.777854,-65730.993728
1397.432337,-592.164754,8290.306550,-73391.948708
1397.434859,-13323.706956,19689.478057,-70634.004916
1397.437380,-3701.029710,3256.906145,-80133.589091
1397.439902,-5921.647536,6957.935855,-74004.825107
1397.442424,-5033.400406,3701.029710,-70174.347617
1397.444945,18061.024985,-888.247130,-76609.549800
1397.447467,-11843.295072,10510.924376,-62973.049936
1397.449989,24426.796086,-12435.459826,-80133.589091
1397.452510,-13027.624579,7254.018232,-69408.252119
1397.455032,-5329.482782,-5181.441594,-74464.482406
1397.457554,10510.924376,-10066.800811,-81206.122788
1397.460075,4293.194464,14952.160028,-70787.224015
1397.462597,3404.947333,-296.082377,-79061.055394
1397.465119,1924.535449,4293.194464,-71706.538613
1397.467640,740.205942,148.041188,-70634.004916
1397.470172,1332.370696,-740.205942,-75537.016103
1397.472704,-1628.453072,8290.306550,-71400.100414
1397.475235,6513.812290,4885.359217,-71553.319513
1397.477767,-5329.482782,-3108.864956,-75537.016103
1397.480299,12583.501014,-3108.864956,-78754.617194
1397.482830,-5181.441594,-1776.494261,-76915.987999
1397.485362,5477.523971,-4737.318029,-76762.768900
1397.487893,1480.411884,-2960.823768,-75996.673402
1397.490425,740.205942,-2960.823768,-77988.521696
1397.492957,-9030.512492,8142.265362,-74311.263306
1397.495488,12879.583391,-6513.812290,-77069.207099
1397.498020,-3552.988522,14656.077652,-72319.415011
1397.500552,-28275.866984,15692.365970,-70327.566716
1397.503083,4589.276840,-2220.617826,-87028.448573
1397.505615,-15544.324782,17468.860231,-69408.252119
1397.508146,-2368.659014,1036.288319,-85036.600278
1397.510678,1036.288319,11103.089130,-74158.044206
1397.513210,-5625.565159,11695.253884,-70787.224015
1397.515741,-14508.036463,6217.729913,-75077.358804
1397.518273,-7698.141797,1480.411884,-78448.178995
1397.520804,3108.864956,8734.430116,-74158.044206
1397.523336,-5181.441594,7994.224174,-75537.016103
1397.525868,-4885.359217,3552.988522,-78754.617194
1397.528399,-3256.906145,5329.482782,-75996.673402
1397.530931,-14063.912898,12287.418637,-74311.263306
1397.533463,-11547.212695,8290.306550,-77222.426198
1397.535994,-7402.059420,8438.347739,-75843.454302
1397.538526,-7254.018232,21021.848753,-70480.785816
1397.541057,-2812.782580,3997.112087,-77988.521696
1397.543589,-7994.224174,-888.247130,-79214.274493
1397.546121,-6513.812290,2664.741391,-73391.948708
1397.548652,9178.553681,3849.070898,-76456.330700
1397.551184,-9622.677246,11547.212695,-66650.308326
1397.553716,7846.182985,-10807.006753,-81665.780087
1397.556247,-3404.947333,-3404.947333,-81512.560987
1397.558779,-8142.265362,4145.153275,-71246.881314
1397.561310,9178.553681,-11103.089130,-82585.094684
1397.563842,0.000000,3997.112087,-74617.701505
1397.566374,5181.441594,6513.812290,-72932.291410
1397.568905,-1480.411884,-740.205942,-75230.577904
1397.571445,-6217.729913,1332.370696,-71859.757712
1397.573985,4589.276840,4589.276840,-71400.100414
1397.576526,-740.205942,6661.853478,-75843.454302
1397.579066,3849.070898,-6217.729913,-83197.971083
1397.581606,-9030.512492,-3108.864956,-77835.302597
1397.584146,5181.441594,-2072.576638,-81512.560987
1397.586686,2368.659014,-6661.853478,-76915.987999
1397.589226,4737.318029,-9918.759623,-75230.577904
1397.591766,-5773.606348,5477.523971,-71246.881314
1397.594307,-5033.400406,-148.041188,-76609.549800
1397.596847,10066.800811,-888.247130,-81665.780087
1397.599387,-9622.677246,3552.988522,-72319.415011
1397.601927,5921.647536,-2960.823768,-84883.381178
1397.604467,-20873.807564,29164.114115,-64045.583633
1397.607007,1628.453072,6069.688724,-73238.729609
1397.609547,-6217.729913,6513.812290,-74004.825107
1397.612087,-7698.141797,18209.066173,-66650.308326
1397.614628,0.000000,1628.453072,-76149.892501
1397.617168,-10066.800811,8438.347739,-70480.785816
1397.619708,-10214.842000,4441.235652,-73085.510509
1397.622248,592.164754,6809.894666,-77682.083497
1397.624788,-3849.070898,7550.100608,-77528.864398
1397.627328,-2960.823768,2960.823768,-77835.302597
1397.629868,-9326.594869,7698.141797,-73698.386908
1397.632408,-7402.059420,6217.729913,-72932.291410
1397.634949,-18357.107362,5625.565159,-75690.235202
1397.637489,2812.782580,9622.677246,-77835.302597
1397.640029,-4441.235652,14063.912898,-80133.589091
1397.642569,-9770.718434,19541.436869,-74617.701505
1397.645109,-2664.741391,1332.370696,-74158.044206
1397.647649,-5033.400406,-592.164754,-76303.111601
1397.650189,-14952.160028,10510.924376,-72319.415011
1397.652730,21169.889941,-14952.160028,-84423.723880
1397.655270,-1184.329507,6217.729913,-68182.499322
1397.657810,-9030.512492,2516.700203,-71553.319513
1397.660350,5033.400406,-11695.253884,-84730.162079
1397.662890,-7105.977043,7698.141797,-67722.842023
1397.665430,9770.718434,-4145.153275,-76762.768900
1397.667970,1332.370696,1628.453072,-76609.549800
1397.670510,-1480.411884,7698.141797,-71706.538613
1397.673057,-1924.535449,-5033.400406,-79520.712692
1397.675603,1628.453072,-3997.112087,-79520.712692
1397.678150,1184.329507,2072.576638,-75843.454302
1397.680696,-296.082377,7698.141797,-74311.263306
1397.683243,3997.112087,-1924.535449,-76609.549800
1397.685789,5921.647536,-1036.288319,-75230.577904
1397.688336,888.247130,1332.370696,-69867.909418
1397.690882,3108.864956,-4441.235652,-70327.566716
1397.693429,-15988.448347,-3849.070898,-77375.645298
1397.695975,7994.224174,-2516.700203,-79827.150892
1397.698522,-6069.688724,7105.977043,-76609.549800
1397.701068,9918.759623,-5329.482782,-81052.903688
1397.703615,-5329.482782,12287.418637,-71553.319513
1397.706161,-29312.155303,18653.189738,-66956.746525
1397.708708,2368.659014,-1332.370696,-88254.201370
1397.711254,-16728.654289,16728.654289,-71859.757712
1397.713801,-5773.606348,0.000000,-87334.886772
1397.716347,-1924.535449,8438.347739,-77069.207099
1397.718894,-13619.789333,7994.224174,-71400.100414
1397.721440,-9622.677246,6661.853478,-76609.549800
1397.723987,-2812.782580,3552.988522,-78448.178995
1397.726533,-8882.471304,7254.018232,-73545.167808
1397.729080,1036.288319,592.164754,-80440.027290
1397.731626,-10807.006753,5181.441594,-75230.577904
1397.734173,-9622.677246,8438.347739,-72932.291410
1397.736719,-9622.677246,8734.430116,-71706.538613
1397.739266,-7105.977043,9030.512492,-71400.100414
1397.741812,-6069.688724,15248.242405,-72166.195912
1397.744359,740.205942,14656.077652,-77069.207099
1397.746905,-9030.512492,10362.883188,-71553.319513
1397.749452,-6069.688724,0.000000,-76915.987999
1397.751998,-16284.530724,-444.123565,-79673.931792
1397.754545,21021.848753,-4885.359217,-80899.684589
1397.757091,-8142.265362,10510.924376,-62973.049936
1397.759638,15100.201217,-11251.130318,-77222.426198
1397.762184,592.164754,2516.700203,-73545.167808
1397.764731,-5625.565159,4441.235652,-70634.004916
1397.767277,7402.059420,-3849.070898,-79673.931792
1397.769824,5477.523971,740.205942,-74004.825107
1397.772370,-3849.070898,5181.441594,-72472.634111
1397.774922,4145.153275,-1332.370696,-77835.302597
1397.777474,-1480.411884,0.000000,-75690.235202
1397.780027,-3108.864956,2072.576638,-75383.797003
1397.782579,2516.700203,3849.070898,-73545.167808
1397.785131,-1776.494261,740.205942,-74770.920605
1397.787683,12879.583391,-296.082377,-78294.959896
1397.790236,-7698.141797,-2664.741391,-78601.398095
1397.792788,5329.482782,-5181.441594,-74311.263306
1397.795340,1776.494261,-8142.265362,-73085.510509
1397.797892,1628.453072,-5477.523971,-79980.369991
1397.800444,-13175.665768,8882.471304,-74464.482406
1397.802997,15988.448347,-5477.523971,-77988.521696
1397.805549,-7254.018232,11399.171507,-71706.538613
1397.808101,-23982.672521,23094.425390,-64964.898230
1397.810653,4293.194464,740.205942,-85189.819378
1397.813206,-20281.642811,17912.983796,-69101.813920
1397.815758,3997.112087,3256.906145,-78601.398095
1397.818310,-4441.235652,8734.430116,-74617.701505
1397.820862,-12879.583391,4441.235652,-75077.358804
1397.823414,-2812.782580,3701.029710,-75077.358804
1397.825967,-6365.771101,9178.553681,-75077.358804
1397.828519,-296.082377,3997.112087,-76149.892501
1397.831071,-3701.029710,4885.359217,-72166.195912
1397.833623,-6217.729913,4589.276840,-74924.139704
1397.836175,-5033.400406,4589.276840,-76149.892501
1397.838728,-20429.683999,11991.336260,-74004.825107
1397.841280,6217.729913,7550.100608,-75843.454302
1397.843832,-10955.047942,10658.965565,-76303.111601
1397.846384,-2072.576638,17320.819043,-74464.482406
1397.848937,-3997.112087,8882.471304,-70634.004916
1397.851489,-5773.606348,-1628.453072,-81052.903688
1397.854041,-18505.148550,11103.089130,-72166.195912
1397.856593,20577.725188,-17172.777854,-84117.285680
1397.859145,1924.535449,3701.029710,-72012.976812
1397.861698,3404.947333,-1776.494261,-73851.606007
1397.864250,-1628.453072,-4441.235652,-81359.341888
1397.866802,-3997.112087,5773.606348,-69255.033019
1397.869354,6957.935855,-6513.812290,-77222.426198
1397.871907,5329.482782,0.000000,-75230.577904
1397.874459,-1036.288319,5033.400406,-73238.729609
1397.877015,-8734.430116,-1332.370696,-75843.454302
1397.879572,-592.164754,-1776.494261,-78141.740796
1397.882128,1480.411884,2072.576638,-75383.797003
1397.884684,-1036.288319,2812.782580,-75383.797003
1397.887241,16136.489536,0.000000,-73851.606007
1397.889797,-14359.995275,3701.029710,-67876.061123
1397.892353,8882.471304,-2960.823768,-74158.044206
1397.894910,14211.954086,-10214.842000,-74464.482406
1397.897466,-20577.725188,4293.194464,-69255.033019
1397.900022,17616.901420,-3404.947333,-80440.027290
1397.902579,-5921.647536,3849.070898,-79520.712692
1397.905135,-8734.430116,-148.041188,-69867.909418
1397.907691,10362.883188,1332.370696,-73698.386908
1397.910248,-29312.155303,28571.949361,-64045.583633
1397.912804,296.082377,8290.306550,-74770.920605
1397.915360,2812.782580,4441.235652,-77682.083497
1397.917917,-14952.160028,17172.777854,-71553.319513
1397.920473,4885.359217,444.123565,-78907.836294
1397.923030,-10955.047942,7550.100608,-72472.634111
1397.925586,-15544.324782,11399.171507,-71553.319513
1397.928142,1924.535449,6513.812290,-76762.768900
1397.930699,-7846.182985,5181.441594,-78294.959896
1397.933255,-1776.494261,0.000000,-75077.358804
1397.935811,-10510.924376,11251.130318,-68948.594820
1397.938368,-10214.842000,10658.965565,-76609.549800
1397.940924,-4737.318029,4293.194464,-81665.780087
1397.943480,-10214.842000,11991.336260,-73085.510509
1397.946037,-9178.553681,19541.436869,-72319.415011
1397.948593,-1776.494261,5773.606348,-75996.673402
1397.951149,-13767.830521,4589.276840,-77375.645298
1397.953706,-6513.812290,592.164754,-76149.892501
1397.956262,24278.754898,-16136.489536,-86875.229473
1397.958818,-5181.441594,7105.977043,-69255.033019
1397.961375,8734.430116,-4441.235652,-73698.386908
1397.963931,-3849.070898,-2664.741391,-77988.521696
1397.966488,-10955.047942,5921.647536,-70634.004916
1397.969044,11251.130318,-13027.624579,-85189.819378
1397.971600,740.205942,4145.153275,-71859.757712
1397.974157,4885.359217,2812.782580,-74004.825107
1397.976713,3849.070898,-888.247130,-78907.836294
1397.979273,-7550.100608,592.164754,-74924.139704
1397.981834,4589.276840,3552.988522,-73851.606007
1397.984394,2220.617826,3552.988522,-75996.673402
1397.986954,13767.830521,296.082377,-73085.510509
1397.989514,-14952.160028,2960.823768,-65424.555529
1397.992075,8142.265362,-3552.988522,-72779.072310
1397.994635,16728.654289,-9326.594869,-74311.263306
1397.997195,-13323.706956,6365.771101,-69867.909418
1397.999756,5329.482782,-1184.329507,-74311.263306
1398.002316,7846.182985,3108.864956,-75537.016103
1398.004876,-15840.407159,3849.070898,-69714.690318
1398.007436,11399.171507,-888.247130,-79673.931792
1398.009997,-27979.784608,30792.567187,-59755.448844
1398.012557,6661.853478,8438.347739,-75537.016103
1398.015117,-7254.018232,10955.047942,-70174.347617
1398.017678,-6957.935855,16876.695478,-70480.785816
1398.020238,-592.164754,4293.194464,-76303.111601
1398.022798,-8290.306550,6217.729913,-74004.825107
1398.025358,-15396.283594,10066.800811,-72319.415011
1398.027919,2072.576638,6661.853478,-75383.797003
1398.030479,-6661.853478,4885.359217,-79061.055394
1398.033039,0.000000,148.041188,-79980.369991
1398.035600,-10214.842000,6217.729913,-75537.016103
1398.038160,-19245.354492,12731.542202,-75537.016103
1398.040720,-5477.523971,7402.059420,-79214.274493
1398.043280,-9622.677246,10955.047942,-75537.016103
1398.045841,-13027.624579,18801.230927,-74158.044206
1398.048401,592.164754,5477.523971,-77528.864398
1398.050961,-9030.512492,3108.864956,-77682.083497
1398.053522,-13027.624579,1628.453072,-73545.167808
1398.056082,17764.942608,-16580.613101,-85955.914876
1398.058642,1924.535449,4145.153275,-73851.606007
1398.061202,7846.182985,-4145.153275,-75690.235202
1398.063763,-3701.029710,-2072.576638,-75230.577904
1398.066323,-5329.482782,6957.935855,-67263.184724
1398.068883,5477.523971,-8734.430116,-83197.971083
1398.071444,4885.359217,2220.617826,-76915.987999
1398.074004,0.000000,5033.400406,-74464.482406
1398.076564,-2812.782580,-2516.700203,-77682.083497
1398.079124,-2812.782580,-740.205942,-75537.016103
1398.081687,0.000000,4589.276840,-73698.386908
1398.084249,1776.494261,3404.947333,-77069.207099
1398.086812,12879.583391,-3701.029710,-77222.426198
1398.089374,-10214.842000,8142.265362,-67263.184724
1398.091937,1628.453072,148.041188,-70634.004916
1398.094499,15248.242405,-16284.530724,-81665.780087
1398.097062,3404.947333,3108.864956,-71706.538613
1398.099624,-9178.553681,12731.542202,-64198.802732
1398.102187,10066.800811,-6957.935855,-83657.628382
1398.104749,-15544.324782,13767.830521,-70634.004916
1398.107312,4145.153275,-6809.894666,-86415.572174
1398.109874,-21169.889941,22650.301825,-69867.909418
1398.112437,-6957.935855,10658.965565,-70634.004916
1398.114999,1776.494261,4145.153275,-78448.178995
1398.117562,-5773.606348,15396.283594,-71706.538613
1398.120124,-3552.988522,3997.112087,-75230.577904
1398.122687,-11103.089130,3849.070898,-74464.482406
1398.125249,-10510.924376,9918.759623,-75230.577904
1398.127812,-2960.823768,9918.759623,-70021.128517
1398.130374,-3552.988522,6217.729913,-71093.662214
1398.132937,148.041188,-1628.453072,-79061.055394
1398.135499,-11103.089130,8438.347739,-77682.083497
1398.138062,-18209.066173,14063.912898,-71859.757712
1398.140624,3552.988522,4441.235652,-75230.577904
1398.143187,-17172.777854,13767.830521,-73391.948708
1398.145749,7994.224174,13619.789333,-75843.454302
1398.148312,-11695.253884,13027.624579,-70174.347617
1398.150874,-5329.482782,3701.029710,-74311.263306
1398.153437,-15988.448347,13175.665768,-66956.746525
1398.155999,15988.448347,-19541.436869,-86875.229473
1398.158562,11103.089130,-6661.853478,-83351.190182
1398.161124,-12139.377449,4885.359217,-72472.634111
1398.163687,-1776.494261,-8290.306550,-80133.589091
1398.166249,3108.864956,148.041188,-69408.252119
1398.168812,3256.906145,0.000000,-75690.235202
1398.171374,7994.224174,444.123565,-78448.178995
1398.173937,296.082377,5773.606348,-72779.072310
1398.176499,-2664.741391,1036.288319,-72779.072310
1398.179062,-2516.700203,-4145.153275,-76915.987999
1398.181624,3849.070898,2812.782580,-77835.302597
1398.184189,5773.606348,6513.812290,-72932.291410
1398.186754,-5033.400406,-2812.782580,-75996.673402
1398.189318,5033.400406,-7402.059420,-84576.942979
1398.191883,3108.864956,-6809.894666,-76915.987999
1398.194448,-12879.583391,-4293.194464,-77069.207099
1398.197012,16728.654289,-8438.347739,-83044.751983
1398.199577,-6069.688724,9770.718434,-72472.634111
1398.202142,-9770.718434,0.000000,-71400.100414
1398.204706,6661.853478,9030.512492,-72319.415011
1398.207271,-26647.413912,27683.702231,-61594.078039
1398.209836,2368.659014,1036.288319,-86875.229473
1398.212400,-6661.853478,10658.965565,-74770.920605
1398.214965,-11103.089130,14804.118840,-71553.319513
1398.217530,5329.482782,3108.864956,-77528.864398
1398.220094,-9474.636058,5181.441594,-74464.482406
1398.222659,-14656.077652,10510.924376,-72012.976812
1398.225224,-3404.947333,6217.729913,-74924.139704
1398.227788,-4441.235652,7846.182985,-76609.549800
1398.230353,-296.082377,5033.400406,-76456.330700
1398.232918,-10658.965565,8882.471304,-70021.128517
1398.235482,-13471.748144,13767.830521,-75537.016103
1398.238047,-6365.771101,9474.636058,-80286.808190
1398.240612,-8882.471304,12435.459826,-75383.797003
1398.243176,-3108.864956,18061.024985,-73698.386908
1398.245741,-5773.606348,6661.853478,-76303.111601
1398.248306,-4145.153275,4145.153275,-80286.808190
1398.250870,-21614.013506,9770.718434,-72319.415011
1398.253435,17468.860231,-18949.272115,-87334.886772
1398.256000,-296.082377,4885.359217,-70174.347617
1398.258564,13471.748144,-6365.771101,-77222.426198
1398.261129,-5033.400406,-2220.617826,-81359.341888
1398.263694,-6809.894666,6513.812290,-70940.443115
1398.266258,6809.894666,-5921.647536,-77375.645298
1398.268823,1776.494261,2368.659014,-72932.291410
1398.271388,5477.523971,5773.606348,-74924.139704
1398.273952,148.041188,592.164754,-77375.645298
1398.276517,-9918.759623,-148.041188,-75690.235202
1398.279082,7994.224174,-888.247130,-75077.358804
1398.281646,-1628.453072,4293.194464,-74004.825107
1398.284211,3108.864956,-3108.864956,-75230.577904
1398.286778,13323.706956,-888.247130,-76915.987999
1398.289344,-5625.565159,-1184.329507,-72012.976812
1398.291911,-3997.112087,-9474.636058,-77835.302597
1398.294478,12731.542202,-7254.018232,-79980.369991
1398.297044,-11399.171507,10362.883188,-72319.415011
1398.299611,16136.489536,-2812.782580,-79827.150892
1398.302177,-11399.171507,17024.736666,-69101.813920
1398.304744,-20429.683999,9474.636058,-70634.004916
1398.307311,-3256.906145,-888.247130,-85802.695776
1398.309877,-14211.954086,13027.624579,-74617.701505
1398.312444,-3108.864956,14211.954086,-72166.195912
1398.315011,1036.288319,-592.164754,-79520.712692
1398.317577,-10510.924376,5033.400406,-72625.853210
1398.320144,-14952.160028,10214.842000,-71400.100414
1398.322710,-3701.029710,9326.594869,-75537.016103
1398.325277,1628.453072,3108.864956,-80593.246390
1398.327844,-3256.906145,6365.771101,-74770.920605
1398.330410,-10807.006753,8438.347739,-71400.100414
1398.332977,-9622.677246,6957.935855,-77222.426198
1398.335543,-10955.047942,11103.089130,-74464.482406
1398.338110,-1480.411884,11991.336260,-71553.319513
1398.340677,-5921.647536,18949.272115,-72779.072310
1398.343243,-2812.782580,6957.935855,-77835.302597
1398.345810,-5477.523971,5773.606348,-72472.634111
1398.348377,-18801.230927,13323.706956,-69867.909418
1398.350943,21465.972318,-18801.230927,-87028.448573
1398.353510,4145.153275,-4589.276840,-78448.178995
1398.356076,-4145.153275,3256.906145,-70787.224015
1398.358643,7698.141797,-7550.100608,-82278.656485
1398.361210,-9918.759623,7698.141797,-69867.909418
1398.363776,8586.388927,-3997.112087,-77835.302597
1398.366343,5625.565159,1332.370696,-75077.358804
1398.368909,3701.029710,6217.729913,-76303.111601
1398.371476,2960.823768,-3108.864956,-80746.465489
1398.374043,-6069.688724,740.205942,-75077.358804
1398.376609,1036.288319,3997.112087,-76303.111601
1398.379176,7402.059420,1036.288319,-74924.139704
1398.381743,-296.082377,-2516.700203,-76303.111601
1398.384309,740.205942,-9326.594869,-81818.999186
1398.386876,9178.553681,-8734.430116,-72779.072310
1398.389411,9030.512492,-2220.617826,-76149.892501
1398.391945,-1924.535449,296.082377,-74770.920605
1398.394480,-444.123565,296.082377,-78754.617194
1398.397015,-11991.336260,7698.141797,-74617.701505
1398.399550,7550.100608,0.000000,-85343.038477
1398.402084,-26499.372724,21021.848753,-71859.757712
1398.404619,-6365.771101,10066.800811,-68948.594820
1398.407154,2664.741391,6661.853478,-74770.920605
1398.409688,-8142.265362,19541.436869,-66190.651027
1398.412223,-5477.523971,444.123565,-76915.987999
1398.414758,-10658.965565,5773.606348,-71859.757712
1398.417292,-6809.894666,9474.636058,-71246.881314
1398.419827,-2220.617826,5625.565159,-77069.207099
1398.422362,-2220.617826,3108.864956,-77682.083497
1398.424896,-8142.265362,3701.029710,-78141.740796
1398.427431,-17764.942608,11547.212695,-75843.454302
1398.429966,-4293.194464,5181.441594,-80746.465489
1398.432501,-14656.077652,8734.430116,-79980.369991
1398.435035,-11103.089130,19393.395680,-73545.167808
1398.437570,5033.400406,7550.100608,-76149.892501
1398.440105,-16876.695478,5477.523971,-79367.493593
1398.442639,-11251.130318,4737.318029,-71706.538613
1398.445174,20577.725188,-296.082377,-73545.167808
1398.447709,-11103.089130,7994.224174,-64352.021832
1398.450243,23982.672521,-13471.748144,-80286.808190
1398.452778,-7550.100608,5033.400406,-70634.004916
1398.455313,-11251.130318,3108.864956,-72625.853210
1398.457847,6661.853478,-4737.318029,-74004.825107
1398.460382,-592.164754,-1036.288319,-75077.358804
1398.462917,8882.471304,2812.782580,-76915.987999
1398.465452,2516.700203,740.205942,-77988.521696
1398.467986,-7994.224174,-1480.411884,-77069.207099
1398.470521,-148.041188,-444.123565,-73851.606007
1398.473056,296.082377,3404.947333,-75843.454302
1398.475590,19097.313304,-3701.029710,-79827.150892
1398.478125,5033.400406,-1776.494261,-73851.606007
1398.480660,-5329.482782,-4885.359217,-72012.976812
1398.483194,4589.276840,-5773.606348,-74311.263306
1398.485729,7254.018232,-3256.906145,-77682.083497
1398.488264,-7550.100608,6069.688724,-77988.521696
1398.490806,9178.553681,2220.617826,-72472.634111
1398.493348,-296.082377,8586.388927,-72932.291410
1398.495890,-21169.889941,29756.278868,-62513.392637
1398.498432,2368.659014,148.041188,-83504.409282
1398.500974,-8290.306550,12435.459826,-73851.606007
1398.503516,-4885.359217,11103.089130,-72472.634111
1398.506058,148.041188,-3256.906145,-82431.875585
1398.508600,-9178.553681,6365.771101,-73545.167808
1398.511143,-14508.036463,8142.265362,-74004.825107
1398.513685,-3552.988522,9622.677246,-75383.797003
1398.516227,0.000000,6513.812290,-72166.195912
1398.518769,-7550.100608,6661.853478,-71553.319513
1398.521311,-10510.924376,8438.347739,-72932.291410
1398.523853,-6809.894666,9178.553681,-75383.797003
1398.526395,-5477.523971,9030.512492,-69561.471218
1398.528937,-9030.512492,13323.706956,-74158.044206
1398.531479,-9178.553681,8438.347739,-75537.016103
1398.534021,-4145.153275,11103.089130,-72625.853210
1398.536563,-5181.441594,1332.370696,-74158.044206
1398.539106,6217.729913,296.082377,-74004.825107
1398.541648,-5773.606348,4737.318029,-61134.420740
1398.544190,29608.237680,-15544.324782,-79520.712692
1398.546732,-10658.965565,4145.153275,-72625.853210
1398.549274,-4885.359217,-1332.370696,-78601.398095
1398.551816,3997.112087,-3552.988522,-77988.521696
1398.554358,7105.977043,2220.617826,-74311.263306
1398.556900,6957.935855,1628.453072,-77222.426198
1398.559442,-1924.535449,4885.359217,-75537.016103
1398.561984,-3404.947333,-6069.688724,-78294.959896
1398.564526,-4885.359217,2960.823768,-74770.920605
1398.567069,888.247130,1776.494261,-75230.577904
1398.569611,24130.713709,-2812.782580,-77222.426198
1398.572153,-7994.224174,-3256.906145,-76762.768900
1398.574695,2664.741391,-10362.883188,-79061.055394
1398.577237,-2664.741391,-3108.864956,-74770.920605
1398.579779,3404.947333,-2960.823768,-72932.291410
1398.582321,148.041188,1036.288319,-77222.426198
1398.584863,2960.823768,1628.453072,-74770.920605
1398.587405,-148.041188,16728.654289,-70634.004916
1398.589947,-30348.443622,20429.683999,-65884.212828
1398.592496,444.123565,-740.205942,-86568.791274
1398.595045,-10807.006753,12435.459826,-74924.139704
1398.597594,-592.164754,5181.441594,-82738.313784
1398.600142,-3404.947333,4145.153275,-78141.740796
1398.602691,-15100.201217,7698.141797,-70174.347617
1398.605240,-13323.706956,3404.947333,-74617.701505
1398.607789,3701.029710,3997.112087,-78907.836294
1398.610337,-1924.535449,6809.894666,-76915.987999
1398.612886,-4589.276840,11103.089130,-72166.195912
1398.615435,-9326.594869,5625.565159,-73085.510509
1398.617984,-17024.736666,8734.430116,-70174.347617
1398.620532,2812.782580,8438.347739,-72779.072310
1398.623081,-8586.388927,18653.189738,-75077.358804
1398.625630,-3849.070898,11991.336260,-74464.482406
1398.628179,-4293.194464,10807.006753,-71859.757712
1398.630727,-12435.459826,2368.659014,-74158.044206
1398.633276,12139.377449,2072.576638,-75077.358804
1398.635825,-10955.047942,1480.411884,-67416.403824
1398.638374,7254.018232,-13767.830521,-77375.645298
1398.640922,1776.494261,-3701.029710,-75383.797003
1398.643471,-9326.594869,3552.988522,-75383.797003
1398.646020,4885.359217,-7105.977043,-83197.971083
1398.648569,7846.182985,888.247130,-74617.701505
1398.651117,3552.988522,4737.318029,-72166.195912
1398.653666,3997.112087,0.000000,-75537.016103
1398.656215,-7550.100608,1184.329507,-78141.740796
1398.658764,-3997.112087,4885.359217,-72932.291410
1398.661312,3108.864956,592.164754,-73085.510509
1398.663861,15248.242405,-1628.453072,-76609.549800
1398.666410,6809.894666,-3997.112087,-76456.330700
1398.668959,-2516.700203,-9178.553681,-79367.493593
1398.671507,1332.370696,-1332.370696,-73085.510509
1398.674056,-296.082377,-592.164754,-72319.415011
1398.676605,13175.665768,-444.123565,-78754.617194
1398.679154,-9178.553681,7105.977043,-74924.139704
1398.681702,-2220.617826,3701.029710,-82125.437386
1398.684251,-26795.455100,26351.331535,-64658.460031
1398.686800,-1332.370696,2516.700203,-75996.673402
1398.689349,-3404.947333,9178.553681,-74924.139704
1398.691897,592.164754,17172.777854,-71246.881314
1398.694451,-1776.494261,444.123565,-79673.931792
1398.697005,-15396.283594,3552.988522,-73851.606007
1398.699558,-12879.583391,6957.935855,-71859.757712
1398.702112,-2072.576638,7254.018232,-77069.207099
1398.704666,888.247130,5921.647536,-81206.122788
1398.707220,-4737.318029,4737.318029,-76456.330700
1398.709773,-27387.619854,12287.418637,-69101.813920
1398.712327,-10214.842000,11547.212695,-74617.701505
1398.714881,-5181.441594,9178.553681,-76303.111601
1398.717434,-2960.823768,18801.230927,-72932.291410
1398.719988,-6513.812290,9326.594869,-75996.673402
1398.722542,-3701.029710,5329.482782,-76609.549800
1398.725096,-15248.242405,11843.295072,-71246.881314
1398.727649,16136.489536,-22058.137072,-89326.735067
1398.730203,7105.977043,-5181.441594,-80440.027290
1398.732757,2220.617826,-1184.329507,-71553.319513
1398.735310,-2072.576638,-9326.594869,-84576.942979
1398.737864,-7698.141797,8290.306550,-69867.909418
1398.740418,4293.194464,-1480.411884,-76456.330700
1398.742971,6809.894666,-740.205942,-75996.673402
1398.745525,6513.812290,2072.576638,-76303.111601
1398.748079,-7698.141797,-1924.535449,-75077.358804
1398.750633,-6217.729913,-1480.411884,-78294.959896
1398.753186,4441.235652,-740.205942,-79214.274493
1398.755740,7402.059420,1776.494261,-73851.606007
1398.758294,10658.965565,-296.082377,-70787.224015
1398.760847,9178.553681,-7402.059420,-74158.044206
1398.763401,-18801.230927,-2368.659014,-73698.386908
1398.765955,15692.365970,-11547.212695,-81359.341888
1398.768509,-7846.182985,7550.100608,-71246.881314
1398.771062,17172.777854,592.164754,-75077.358804
1398.773616,-11103.089130,15692.365970,-72625.853210
1398.776170,-26647.413912,16284.530724,-72319.415011
1398.778723,-296.082377,2220.617826,-83964.066581
1398.781277,-16580.613101,13915.871710,-70174.347617
1398.783831,1332.370696,9326.594869,-76762.768900
1398.786385,-296.082377,-1628.453072,-82125.437386
1398.788938,-17320.819043,6661.853478,-72932.291410
1398.791492,-15544.324782,6513.812290,-75537.016103
1398.794046,2664.741391,5329.482782,-77222.426198
1398.796604,592.164754,7105.977043,-75077.358804
1398.799162,-2664.741391,6661.853478,-76456.330700
1398.801720,-23094.425390,7994.224174,-77069.207099
1398.804278,-1628.453072,7105.977043,-77988.521696
1398.806836,-14508.036463,11103.089130,-74617.701505
1398.809394,1924.535449,10362.883188,-79980.369991
1398.811952,-2072.576638,12287.418637,-72779.072310
1398.814510,-9622.677246,6809.894666,-76915.987999
1398.817068,-18357.107362,6365.771101,-76149.892501
1398.819626,21465.972318,-21910.095883,-84117.285680
1398.822184,12583.501014,-10807.006753,-81052.903688
1398.824742,-9326.594869,2812.782580,-70327.566716
1398.827300,8586.388927,-10362.883188,-86415.572174
1398.829858,-11695.253884,8586.388927,-68488.937521
1398.832416,5033.400406,-1628.453072,-74311.263306
1398.834974,8438.347739,296.082377,-77682.083497
1398.837532,888.247130,5773.606348,-77375.645298
1398.840090,-5921.647536,-1480.411884,-78294.959896
1398.842648,-10214.842000,-5329.482782,-79980.369991
1398.845206,1924.535449,-888.247130,-77069.207099
1398.847764,9030.512492,1776.494261,-75383.797003
1398.850322,11399.171507,-4737.318029,-76915.987999
1398.852880,14508.036463,-9326.594869,-77222.426198
1398.855438,-21021.848753,-444.123565,-72012.976812
1398.857996,5921.647536,-7994.224174,-76149.892501
1398.860554,8438.347739,1036.288319,-75996.673402
1398.863112,-9770.718434,6513.812290,-68335.718422
1398.865670,8586.388927,6809.894666,-78601.398095
1398.868228,-34345.555709,34197.514520,-60981.201641
1398.870786,-3552.988522,3849.070898,-80133.589091
1398.873344,-3997.112087,7105.977043,-74617.701505
1398.875902,-5773.606348,15100.201217,-71246.881314
1398.878460,-592.164754,3849.070898,-76303.111601
1398.881018,-10510.924376,1332.370696,-76609.549800
1398.883576,-14952.160028,9474.636058,-73698.386908
1398.886134,592.164754,8586.388927,-74311.263306
1398.888692,-4737.318029,6069.688724,-74158.044206
1398.891250,-1036.288319,9178.553681,-71093.662214
1398.893808,-20725.766376,7994.224174,-71093.662214
1398.896366,-2960.823768,7254.018232,-81972.218286
1398.898928,-14359.995275,13767.830521,-76303.111601
1398.901489,-2516.700203,11103.089130,-75996.673402
1398.904051,-4885.359217,10510.924376,-74464.482406
1398.906613,-5329.482782,7994.224174,-72779.072310
1398.909174,-20873.807564,12879.583391,-72166.195912
1398.911736,14952.160028,-20577.725188,-85496.257577
