#time,accel_x,accel_y,accel_z
3718.248508,-5773.606348,3849.070898,-73698.386908
3718.251069,-592.164754,3849.070898,-73851.606007
3718.253629,-2664.741391,1924.535449,-74924.139704
3718.256190,-3997.112087,5921.647536,-75537.016103
3718.258750,-1184.329507,3404.947333,-74924.139704
3718.261311,-6217.729913,4441.235652,-74924.139704
3718.263871,148.041188,5033.400406,-73085.510509
3718.266432,-1332.370696,2220.617826,-74617.701505
3718.268992,-6217.729913,6513.812290,-74004.825107
3718.271553,-296.082377,3404.947333,-75843.454302
3718.274113,-5181.441594,5033.400406,-74924.139704
3718.276674,-1184.329507,4885.359217,-73698.386908
3718.279235,-4885.359217,1628.453072,-74004.825107
3718.281795,-5477.523971,4885.359217,-73698.386908
3718.284356,-296.082377,4145.153275,-75077.358804
3718.286916,-4145.153275,2072.576638,-76609.549800
3718.289477,-3256.906145,6069.688724,-75077.358804
3718.292037,-1036.288319,3701.029710,-75383.797003
3718.294598,-5033.400406,6217.729913,-73851.606007
3718.297158,296.082377,4589.276840,-73545.167808
3718.299719,-4885.359217,2516.700203,-75843.454302
3718.302279,-2072.576638,6661.853478,-76303.111601
3718.304840,2220.617826,1184.329507,-77835.302597
3718.307400,-3997.112087,3997.112087,-74464.482406
3718.309961,22058.137072,-2072.576638,-72932.291410
3718.312522,-20281.642811,-4293.194464,-65577.774629
3718.315082,2812.782580,-1776.494261,-70174.347617
3718.317643,740.205942,3108.864956,-80899.684589
3718.320203,-8586.388927,8438.347739,-75996.673402
3718.322764,6661.853478,2664.741391,-83044.751983
3718.325324,7254.018232,1924.535449,-76456.330700
3718.327877,-13471.748144,5625.565159,-69561.471218
3718.330429,3849.070898,-5329.482782,-74311.263306
3718.332982,-17616.901420,8586.388927,-72472.634111
3718.335535,296.082377,12139.377449,-73238.729609
3718.338087,7550.100608,5773.606348,-77528.864398
3718.340640,-14063.912898,14359.995275,-70940.443115
3718.343193,-3108.864956,3701.029710,-75383.797003
3718.345745,-9178.553681,-296.082377,-77069.207099
3718.348298,-5773.606348,7698.141797,-70940.443115
3718.350851,2516.700203,3404.947333,-76456.330700
3718.353403,-6365.771101,6217.729913,-75383.797003
3718.355956,-6957.935855,12435.459826,-72012.976812
3718.358508,-8438.347739,5477.523971,-74464.482406
3718.361061,0.000000,5625.565159,-75843.454302
3718.363614,1924.535449,5625.565159,-72166.195912
3718.366166,-8142.265362,5477.523971,-75383.797003
3718.368719,-592.164754,3404.947333,-78907.836294
3718.371272,-4441.235652,5921.647536,-74311.263306
3718.373824,-7550.100608,7550.100608,-73085.510509
3718.376377,-296.082377,3256.906145,-73391.948708
3718.378930,-10510.924376,12139.377449,-70327.566716
3718.381482,-4589.276840,9918.759623,-69714.690318
3718.384035,-7254.018232,9030.512492,-72472.634111
3718.386587,-1924.535449,13767.830521,-70634.004916
3718.389140,-1628.453072,6809.894666,-76456.330700
3718.391693,-13027.624579,4589.276840,-77069.207099
3718.394245,-4145.153275,2368.659014,-74770.920605
3718.396798,-148.041188,296.082377,-73851.606007
3718.399351,-4737.318029,8290.306550,-72779.072310
3718.401903,-1776.494261,7994.224174,-74004.825107
3718.404456,-7698.141797,10066.800811,-75077.358804
3718.407009,-11843.295072,13915.871710,-70174.347617
3718.409561,6069.688724,-1184.329507,-78141.740796
3718.412114,-14508.036463,13471.748144,-69255.033019
3718.414666,5477.523971,-10362.883188,-80440.027290
3718.417219,-2220.617826,-2960.823768,-81206.122788
3718.419772,-16580.613101,15988.448347,-67569.622924
3718.422324,15692.365970,-14656.077652,-84576.942979
3718.424877,-13915.871710,13915.871710,-64811.679131
3718.427430,8142.265362,11547.212695,-67109.965625
3718.430006,8734.430116,-6661.853478,-80899.684589
3718.432551,-6513.812290,4589.276840,-71093.662214
3718.435096,2368.659014,1480.411884,-74464.482406
3718.437640,-444.123565,592.164754,-76456.330700
3718.440185,296.082377,2664.741391,-73851.606007
3718.442729,-5773.606348,6365.771101,-70174.347617
3718.445274,2812.782580,2220.617826,-75230.577904
3718.447819,1036.288319,2220.617826,-74617.701505
3718.450363,1924.535449,296.082377,-76609.549800
3718.452908,1184.329507,-3997.112087,-80286.808190
3718.455452,-6069.688724,1776.494261,-73391.948708
3718.457997,-3256.906145,3997.112087,-72625.853210
3718.460542,5181.441594,3108.864956,-72472.634111
3718.463086,-3997.112087,3552.988522,-71859.757712
3718.465631,-2664.741391,3256.906145,-75077.358804
3718.468175,-5181.441594,3849.070898,-74464.482406
3718.470720,-2812.782580,5921.647536,-74617.701505
3718.473265,2220.617826,2072.576638,-74924.139704
3718.475809,-1628.453072,2072.576638,-75383.797003
3718.478354,1036.288319,148.041188,-72319.415011
3718.480898,5773.606348,-6957.935855,-76456.330700
3718.483443,-3256.906145,-5033.400406,-77069.207099
3718.485988,5773.606348,-5329.482782,-78601.398095
3718.488532,-4145.153275,2516.700203,-77528.864398
3718.491077,-2812.782580,6513.812290,-76456.330700
3718.493622,-2072.576638,11547.212695,-69255.033019
3718.496166,2220.617826,1776.494261,-73085.510509
3718.498711,2812.782580,-3552.988522,-74924.139704
3718.501255,1480.411884,-6513.812290,-75996.673402
3718.503800,-10510.924376,7550.100608,-73698.386908
3718.506345,17912.983796,-5033.400406,-80746.465489
3718.508889,-14656.077652,11991.336260,-71093.662214
3718.511434,-22502.260637,15544.324782,-65424.555529
3718.513978,16284.530724,-7846.182985,-83197.971083
3718.516523,-27387.619854,24130.713709,-64198.802732
3718.519068,-1332.370696,-3552.988522,-79214.274493
3718.521612,6957.935855,148.041188,-78294.959896
3718.524157,-20281.642811,15840.407159,-64352.021832
3718.526701,13175.665768,-5921.647536,-81665.780087
3718.529246,-20873.807564,12583.501014,-70174.347617
3718.531787,-5033.400406,12583.501014,-74311.263306
3718.534328,1332.370696,-1332.370696,-82125.437386
3718.536869,-740.205942,2072.576638,-79673.931792
3718.539410,-8882.471304,7846.182985,-73545.167808
3718.541951,-10214.842000,1924.535449,-77835.302597
3718.544492,-2516.700203,3404.947333,-75537.016103
3718.547033,-5329.482782,14359.995275,-66650.308326
3718.549574,-2664.741391,6957.935855,-76762.768900
3718.552115,-1332.370696,5329.482782,-78448.178995
3718.554656,-13323.706956,5625.565159,-73851.606007
3718.557197,-5477.523971,3552.988522,-73698.386908
3718.559738,-1628.453072,3404.947333,-73085.510509
3718.562279,-6809.894666,9770.718434,-70634.004916
3718.564820,-1924.535449,1480.411884,-75996.673402
3718.567361,-7550.100608,3997.112087,-75077.358804
3718.569903,-5181.441594,9030.512492,-70940.443115
3718.572444,-5181.441594,4737.318029,-74004.825107
3718.574985,-14952.160028,9622.677246,-72166.195912
3718.577526,-3849.070898,10362.883188,-71706.538613
3718.580067,-3108.864956,7698.141797,-76149.892501
3718.582608,-3849.070898,9918.759623,-74311.263306
3718.585149,2664.741391,6069.688724,-75077.358804
3718.587690,-8734.430116,1332.370696,-71553.319513
3718.590231,-4293.194464,296.082377,-72932.291410
3718.592772,-9178.553681,5477.523971,-73698.386908
3718.595313,-7994.224174,10214.842000,-74924.139704
3718.597854,5033.400406,7105.977043,-76762.768900
3718.600395,-15248.242405,14359.995275,-71093.662214
3718.602936,6217.729913,2220.617826,-78754.617194
3718.605477,-13767.830521,15396.283594,-68029.280222
3718.608018,1480.411884,-10807.006753,-81512.560987
3718.610559,18209.066173,-7846.182985,-80899.684589
3718.613100,-26795.455100,17320.819043,-64964.898230
3718.615641,5033.400406,-6661.853478,-83044.751983
3718.618182,9918.759623,-5329.482782,-84576.942979
3718.620723,-20725.766376,15988.448347,-64811.679131
3718.623264,18209.066173,-5033.400406,-81818.999186
3718.625805,-1480.411884,2664.741391,-69255.033019
3718.628346,-5773.606348,2368.659014,-71706.538613
3718.630887,1332.370696,-1036.288319,-75077.358804
3718.633314,-3849.070898,3108.864956,-74464.482406
3718.635741,-148.041188,8586.388927,-69867.909418
3718.638168,444.123565,1184.329507,-75843.454302
3718.640595,-3552.988522,6069.688724,-74464.482406
3718.643022,2664.741391,-1776.494261,-74924.139704
3718.645449,0.000000,-4885.359217,-81206.122788
3718.647877,-1036.288319,4737.318029,-73698.386908
3718.650304,-3256.906145,296.082377,-75843.454302
3718.652731,-10510.924376,5329.482782,-75230.577904
3718.655158,740.205942,-296.082377,-76303.111601
3718.657585,-2220.617826,9770.718434,-68182.499322
3718.660012,-5921.647536,3108.864956,-73391.948708
3718.662439,3701.029710,1036.288319,-77528.864398
3718.664866,-2072.576638,6069.688724,-74617.701505
3718.667293,7550.100608,-1924.535449,-73238.729609
3718.669720,-296.082377,-3404.947333,-75537.016103
3718.672147,740.205942,-6661.853478,-77528.864398
3718.674574,-3701.029710,0.000000,-76303.111601
3718.677001,-3404.947333,3701.029710,-75690.235202
3718.679428,2220.617826,1332.370696,-78907.836294
3718.681855,-6661.853478,10066.800811,-75690.235202
3718.684282,9326.594869,2072.576638,-72932.291410
3718.686709,-2516.700203,148.041188,-72932.291410
3718.689136,-13027.624579,-2220.617826,-71859.757712
3718.691563,13767.830521,1776.494261,-74464.482406
3718.693990,-10955.047942,2664.741391,-71093.662214
3718.696417,12287.418637,-1628.453072,-79214.274493
3718.698844,-20725.766376,20577.725188,-65271.336430
3718.701271,5181.441594,-4885.359217,-82431.875585
3718.703698,-1332.370696,10362.883188,-70021.128517
3718.706125,-26499.372724,15988.448347,-66343.870127
3718.708552,17024.736666,-8438.347739,-89786.392366
3718.710979,-17616.901420,16284.530724,-69101.813920
3718.713406,-7994.224174,1628.453072,-78601.398095
3718.715833,-4441.235652,4885.359217,-76149.892501
3718.718260,-5033.400406,10510.924376,-69561.471218
3718.720687,-1480.411884,9622.677246,-68335.718422
3718.723114,-2960.823768,1628.453072,-73238.729609
3718.725541,-11103.089130,7254.018232,-74617.701505
3718.727968,-9474.636058,10214.842000,-72472.634111
3718.730429,2664.741391,1184.329507,-77988.521696
3718.732889,-8438.347739,11399.171507,-72166.195912
3718.735349,-740.205942,7402.059420,-73545.167808
3718.737810,-8586.388927,3997.112087,-77988.521696
3718.740270,-2072.576638,7105.977043,-74464.482406
3718.742730,-1480.411884,4589.276840,-75230.577904
3718.745191,-2664.741391,5477.523971,-75690.235202
3718.747651,1332.370696,3701.029710,-74770.920605
3718.750111,-11991.336260,6661.853478,-70940.443115
3718.752571,-5625.565159,5477.523971,-72779.072310
3718.755032,-6513.812290,3404.947333,-74770.920605
3718.757492,-12287.418637,11251.130318,-74924.139704
3718.759952,-888.247130,8882.471304,-77835.302597
3718.762413,-5921.647536,8290.306550,-78141.740796
3718.764873,-10510.924376,13027.624579,-72625.853210
3718.767333,2664.741391,-148.041188,-74004.825107
3718.769794,-7550.100608,-1332.370696,-75077.358804
3718.772254,-4145.153275,7994.224174,-70174.347617
3718.774714,-10807.006753,7254.018232,-72932.291410
3718.777175,-5921.647536,16876.695478,-72472.634111
3718.779635,-2516.700203,5477.523971,-74004.825107
3718.782095,-5773.606348,5181.441594,-77222.426198
3718.784556,-12731.542202,7105.977043,-74770.920605
3718.787016,9770.718434,-6661.853478,-81972.218286
3718.789476,-1924.535449,4737.318029,-73698.386908
3718.791936,-11251.130318,7846.182985,-69714.690318
3718.794397,17764.942608,-11251.130318,-83810.847481
3718.796857,-14952.160028,20429.683999,-59295.791545
3718.799317,4293.194464,-7550.100608,-78141.740796
3718.801778,-5033.400406,5773.606348,-76149.892501
3718.804238,4293.194464,8290.306550,-68795.375720
3718.806698,4145.153275,-7402.059420,-83044.751983
3718.809159,-3404.947333,4589.276840,-76149.892501
3718.811619,-4589.276840,5181.441594,-72625.853210
3718.814079,-2812.782580,-1776.494261,-76149.892501
3718.816540,6365.771101,2812.782580,-74004.825107
3718.819000,-6513.812290,9178.553681,-69408.252119
3718.821460,9622.677246,-3404.947333,-78754.617194
3718.823921,2516.700203,-592.164754,-76609.549800
3718.826381,-8438.347739,3849.070898,-71859.757712
3718.828867,5477.523971,3256.906145,-73545.167808
3718.831352,-1924.535449,1776.494261,-74464.482406
3718.833838,-4737.318029,6661.853478,-72779.072310
3718.836324,-2072.576638,3256.906145,-72625.853210
3718.838809,-7550.100608,3997.112087,-76456.330700
3718.841295,592.164754,4737.318029,-73698.386908
3718.843781,740.205942,1480.411884,-72472.634111
3718.846266,13027.624579,-2220.617826,-77069.207099
3718.848752,-1184.329507,-3997.112087,-77528.864398
3718.851238,-7105.977043,2812.782580,-76303.111601
3718.853723,-1628.453072,2516.700203,-76609.549800
3718.856209,-148.041188,1332.370696,-72779.072310
3718.858695,-1924.535449,7994.224174,-73545.167808
3718.861180,7698.141797,740.205942,-74158.044206
3718.863666,-9030.512492,1480.411884,-73545.167808
3718.866152,-3256.906145,-2220.617826,-76303.111601
3718.868637,-444.123565,5329.482782,-74617.701505
3718.871123,-2664.741391,0.000000,-72779.072310
3718.873609,14211.954086,4589.276840,-73391.948708
3718.876094,-31976.896694,20429.683999,-61747.297139
3718.878580,14656.077652,-7550.100608,-82891.532884
3718.881066,-13323.706956,17912.983796,-64198.802732
3718.883551,-17912.983796,8142.265362,-73851.606007
3718.886037,20281.642811,-3997.112087,-86109.133975
3718.888523,-25907.207970,14359.995275,-67263.184724
3718.891008,-15692.365970,7550.100608,-74004.825107
3718.893494,444.123565,-740.205942,-80593.246390
3718.895980,-5329.482782,12287.418637,-69714.690318
3718.898465,2220.617826,8734.430116,-71553.319513
3718.900951,-444.123565,-296.082377,-75843.454302
3718.903437,-11843.295072,10955.047942,-72166.195912
3718.905922,-9918.759623,9918.759623,-70787.224015
3718.908408,-3404.947333,-1332.370696,-79061.055394
3718.910894,-3108.864956,11843.295072,-71706.538613
3718.913379,-6217.729913,12435.459826,-67263.184724
3718.915865,-5329.482782,3404.947333,-75690.235202
3718.918351,-3108.864956,6661.853478,-71553.319513
3718.920836,-1184.329507,6365.771101,-71093.662214
3718.923322,-5181.441594,3404.947333,-76456.330700
3718.925808,-3404.947333,3701.029710,-74464.482406
3718.928313,-9622.677246,3404.947333,-73851.606007
3718.930818,-13323.706956,8142.265362,-73085.510509
3718.933324,2220.617826,5921.647536,-76303.111601
3718.935829,-9326.594869,11251.130318,-74617.701505
3718.938335,-4885.359217,12435.459826,-75383.797003
3718.940840,-9770.718434,6957.935855,-75230.577904
3718.943346,-444.123565,592.164754,-75537.016103
3718.945851,-5181.441594,2960.823768,-72319.415011
3718.948356,-9474.636058,5181.441594,-74617.701505
3718.950862,-7994.224174,9474.636058,-74158.044206
3718.953367,-2220.617826,9770.718434,-73545.167808
3718.955873,-7846.182985,13471.748144,-68948.594820
3718.958378,592.164754,3404.947333,-74158.044206
3718.960884,-19245.354492,16432.571912,-69867.909418
3718.963389,2960.823768,-7402.059420,-81206.122788
3718.965894,12435.459826,-12583.501014,-82891.532884
3718.968400,-21465.972318,17172.777854,-67263.184724
3718.970905,13471.748144,-12139.377449,-81665.780087
3718.973411,-444.123565,-1924.535449,-78601.398095
3718.975916,-13619.789333,13619.789333,-66343.870127
3718.978421,12139.377449,-2516.700203,-81818.999186
3718.980927,-4441.235652,5477.523971,-72779.072310
3718.983432,4293.194464,888.247130,-74464.482406
3718.985938,-8438.347739,-1036.288319,-77375.645298
3718.988443,740.205942,2368.659014,-73851.606007
3718.990949,-5033.400406,5329.482782,-69561.471218
3718.993454,2072.576638,1776.494261,-78141.740796
3718.995959,2516.700203,6809.894666,-74770.920605
3718.998465,-6513.812290,3997.112087,-72625.853210
3719.000970,2220.617826,-4441.235652,-78907.836294
3719.003476,2516.700203,444.123565,-76303.111601
3719.005981,-6069.688724,7698.141797,-72012.976812
3719.008498,2072.576638,2368.659014,-76456.330700
3719.011015,-5773.606348,2812.782580,-74311.263306
3719.013531,-4737.318029,8734.430116,-72472.634111
3719.016048,-1036.288319,2220.617826,-75383.797003
3719.018565,2960.823768,2812.782580,-73545.167808
3719.021082,4441.235652,-4737.318029,-70787.224015
3719.023598,-444.123565,-444.123565,-71093.662214
3719.026115,-7550.100608,4589.276840,-71553.319513
3719.028632,-2368.659014,-592.164754,-75996.673402
3719.031149,-9178.553681,10807.006753,-71246.881314
3719.033665,2220.617826,3552.988522,-75843.454302
3719.036182,-148.041188,-5181.441594,-74311.263306
3719.038699,-2664.741391,-2368.659014,-75077.358804
3719.041216,-6809.894666,7402.059420,-73238.729609
3719.043732,7698.141797,-6217.729913,-80746.465489
3719.046249,-4885.359217,6957.935855,-72779.072310
3719.048766,2812.782580,-6661.853478,-80593.246390
3719.051283,-7846.182985,9326.594869,-75077.358804
3719.053800,-16728.654289,10658.965565,-68795.375720
3719.056316,7402.059420,-8290.306550,-87181.667672
3719.058833,-12879.583391,23686.590144,-66803.527426
3719.061350,2664.741391,3256.906145,-73238.729609
3719.063867,-7994.224174,4145.153275,-77835.302597
3719.066383,-11399.171507,11103.089130,-68029.280222
3719.068900,-6809.894666,7846.182985,-70634.004916
3719.071417,0.000000,4737.318029,-77375.645298
3719.073934,2368.659014,5625.565159,-76303.111601
3719.076450,-13619.789333,7254.018232,-73391.948708
3719.078967,-2960.823768,4145.153275,-77069.207099
3719.081484,-12139.377449,9326.594869,-71859.757712
3719.084001,-2960.823768,4589.276840,-74311.263306
3719.086517,3256.906145,5033.400406,-75996.673402
3719.089034,-12879.583391,12879.583391,-71400.100414
3719.091551,-6809.894666,6809.894666,-73238.729609
3719.094068,-6069.688724,740.205942,-74770.920605
3719.096584,-5033.400406,7105.977043,-72319.415011
3719.099101,4589.276840,6069.688724,-72472.634111
3719.101618,-7105.977043,5625.565159,-75230.577904
3719.104135,-5181.441594,6217.729913,-74924.139704
3719.106651,-9030.512492,10807.006753,-73698.386908
3719.109179,-6513.812290,11399.171507,-73545.167808
3719.111707,1332.370696,11843.295072,-72932.291410
3719.114234,-8882.471304,7550.100608,-70787.224015
3719.116762,-3256.906145,-148.041188,-76456.330700
3719.119289,-9030.512492,5477.523971,-74158.044206
3719.121817,-11103.089130,5773.606348,-73238.729609
3719.124345,-4293.194464,8290.306550,-75996.673402
3719.126872,-5033.400406,6069.688724,-75383.797003
3719.129400,-6513.812290,10955.047942,-74004.825107
3719.131928,-5329.482782,5181.441594,-74158.044206
3719.134455,-1628.453072,9474.636058,-75230.577904
3719.136983,-8142.265362,6365.771101,-69255.033019
3719.139510,15396.283594,-13915.871710,-80593.246390
3719.142038,10362.883188,5181.441594,-73698.386908
3719.144566,-18357.107362,11251.130318,-63432.707234
3719.147093,11251.130318,-12731.542202,-87488.105872
3719.149621,-9918.759623,15544.324782,-67876.061123
3719.152148,1332.370696,4441.235652,-75077.358804
3719.154676,5773.606348,-6365.771101,-77375.645298
3719.157204,-1628.453072,3552.988522,-70021.128517
3719.159731,-9474.636058,2960.823768,-70787.224015
3719.162259,8290.306550,-5477.523971,-80440.027290
3719.164786,-5625.565159,7698.141797,-70480.785816
3719.167314,-2516.700203,4293.194464,-74464.482406
3719.169842,5773.606348,3108.864956,-76303.111601
3719.172369,-12879.583391,4737.318029,-69714.690318
3719.174897,2516.700203,-2516.700203,-77528.864398
3719.177425,3108.864956,1184.329507,-74158.044206
3719.179952,-7254.018232,10214.842000,-70480.785816
3719.182480,-1776.494261,592.164754,-76149.892501
3719.185007,-1332.370696,-592.164754,-74464.482406
3719.187535,-2220.617826,5921.647536,-71400.100414
3719.190063,14804.118840,-4737.318029,-76149.892501
3719.192590,-3997.112087,-2072.576638,-74158.044206
3719.195118,148.041188,-1184.329507,-74924.139704
3719.197645,888.247130,-4441.235652,-76915.987999
3719.200173,-6513.812290,1924.535449,-75537.016103
3719.202701,592.164754,6809.894666,-74924.139704
3719.205228,1776.494261,-740.205942,-80746.465489
3719.207756,-2368.659014,3108.864956,-75077.358804
3719.210219,-1776.494261,-3552.988522,-72472.634111
3719.212681,-2220.617826,4145.153275,-74924.139704
3719.215144,4589.276840,444.123565,-70327.566716
3719.217607,5625.565159,5921.647536,-71859.757712
3719.220070,-19245.354492,12583.501014,-68029.280222
3719.222532,16432.571912,-5477.523971,-83351.190182
3719.224995,-27387.619854,23242.466579,-66497.089226
3719.227458,-5181.441594,2072.576638,-77835.302597
3719.229921,8734.430116,2220.617826,-79827.150892
3719.232384,-17320.819043,10658.965565,-66650.308326
3719.234846,6069.688724,-1332.370696,-78754.617194
3719.237309,-16728.654289,9622.677246,-74158.044206
3719.239772,-740.205942,9326.594869,-74311.263306
3719.242235,-1924.535449,4737.318029,-76149.892501
3719.244697,-1036.288319,5625.565159,-75537.016103
3719.247160,-6217.729913,5181.441594,-72779.072310
3719.249623,-11547.212695,5773.606348,-73085.510509
3719.252086,-4145.153275,4145.153275,-77222.426198
3719.254548,-4293.194464,10066.800811,-70787.224015
3719.257011,-444.123565,7105.977043,-74004.825107
3719.259474,444.123565,1924.535449,-76915.987999
3719.261937,-9030.512492,2812.782580,-73851.606007
3719.264399,-3108.864956,2812.782580,-75843.454302
3719.266862,-5033.400406,5033.400406,-75690.235202
3719.269325,-6661.853478,5921.647536,-74004.825107
3719.271788,-3849.070898,2368.659014,-74464.482406
3719.274251,-18949.272115,12287.418637,-70480.785816
3719.276713,-9326.594869,12583.501014,-73545.167808
3719.279176,-148.041188,8882.471304,-75843.454302
3719.281639,0.000000,7254.018232,-74311.263306
3719.284102,-5477.523971,6661.853478,-75077.358804
3719.286564,-11399.171507,740.205942,-77069.207099
3719.289027,-14211.954086,4737.318029,-74004.825107
3719.291490,4145.153275,10658.965565,-72012.976812
3719.293953,-7254.018232,10214.842000,-72932.291410
3719.296415,9622.677246,5625.565159,-78448.178995
3719.298878,-27091.537477,14063.912898,-69867.909418
3719.301341,4737.318029,-11251.130318,-81665.780087
3719.303804,888.247130,6809.894666,-69561.471218
3719.306267,-8142.265362,740.205942,-73085.510509
3719.308755,26055.249158,-8586.388927,-83197.971083
3719.311244,-25018.960840,19541.436869,-60061.887043
3719.313733,3404.947333,-6957.935855,-79673.931792
3719.316222,-1184.329507,3849.070898,-72166.195912
3719.318710,-1924.535449,9918.759623,-66956.746525
3719.321199,-3701.029710,6217.729913,-69867.909418
3719.323688,1776.494261,-3997.112087,-76303.111601
3719.326177,-6217.729913,740.205942,-75690.235202
3719.328665,-444.123565,3849.070898,-73238.729609
3719.331154,6217.729913,-1628.453072,-77835.302597
3719.333643,-6661.853478,6217.729913,-74617.701505
3719.336132,-4145.153275,5033.400406,-71093.662214
3719.338620,-1776.494261,-3552.988522,-79061.055394
3719.341109,-6513.812290,4441.235652,-75843.454302
3719.343598,4441.235652,3701.029710,-79980.369991
3719.346087,-5033.400406,3552.988522,-78294.959896
3719.348575,296.082377,4293.194464,-72166.195912
3719.351064,-4441.235652,3701.029710,-71246.881314
3719.353553,5773.606348,-1480.411884,-72932.291410
3719.356042,9918.759623,-3256.906145,-77222.426198
3719.358530,-12583.501014,1628.453072,-74464.482406
3719.361019,1036.288319,-5033.400406,-81052.903688
3719.363508,-5625.565159,6513.812290,-73851.606007
3719.365997,3404.947333,5477.523971,-73545.167808
3719.368485,10362.883188,-2960.823768,-77375.645298
3719.370974,-6217.729913,7254.018232,-71859.757712
3719.373463,-10658.965565,7254.018232,-71553.319513
3719.375952,3849.070898,-7550.100608,-80899.684589
3719.378440,-6661.853478,2960.823768,-73698.386908
3719.380929,18061.024985,-9326.594869,-81818.999186
3719.383418,-8438.347739,16876.695478,-73085.510509
3719.385907,-13619.789333,5181.441594,-73698.386908
3719.388396,12879.583391,-6513.812290,-85649.476676
3719.390884,-17320.819043,24130.713709,-66803.527426
3719.393373,6069.688724,7550.100608,-68182.499322
3719.395862,-3849.070898,-1628.453072,-78907.836294
3719.398351,-18949.272115,11399.171507,-68795.375720
3719.400839,-4293.194464,2516.700203,-75843.454302
3719.403328,-5625.565159,5921.647536,-75843.454302
3719.405817,4441.235652,12435.459826,-73085.510509
3719.408326,-5773.606348,5773.606348,-74004.825107
3719.410836,-7994.224174,6809.894666,-77069.207099
3719.413346,-13767.830521,8882.471304,-71246.881314
3719.415856,-5181.441594,1184.329507,-77528.864398
3719.418365,6661.853478,5921.647536,-76303.111601
3719.420875,-4589.276840,10214.842000,-72472.634111
3719.423385,-7994.224174,4441.235652,-73851.606007
3719.425895,296.082377,-2220.617826,-76915.987999
3719.428405,-7846.182985,7254.018232,-72625.853210
3719.430915,1332.370696,6957.935855,-75383.797003
3719.433425,-3849.070898,1924.535449,-77682.083497
3719.435934,-21614.013506,12139.377449,-71553.319513
3719.438444,-5625.565159,11843.295072,-71553.319513
3719.440954,888.247130,7105.977043,-76609.549800
3719.443464,5181.441594,6513.812290,-74311.263306
3719.445974,-6069.688724,5329.482782,-75077.358804
3719.448484,-14359.995275,5033.400406,-76915.987999
3719.450993,-13915.871710,8734.430116,-73698.386908
3719.453503,3404.947333,3997.112087,-76456.330700
3719.456013,740.205942,12139.377449,-71400.100414
3719.458523,296.082377,6957.935855,-72012.976812
3719.461033,-6365.771101,5773.606348,-76609.549800
3719.463543,-12583.501014,8882.471304,-67722.842023
3719.466053,14211.954086,-11991.336260,-79214.274493
3719.468562,-3108.864956,12435.459826,-69101.813920
3719.471072,-1184.329507,-2220.617826,-72472.634111
3719.473582,1776.494261,-5773.606348,-82585.094684
3719.476092,-16580.613101,12731.542202,-68642.156621
3719.478602,6365.771101,2072.576638,-75690.235202
3719.481112,8142.265362,2516.700203,-72779.072310
3719.483622,1776.494261,4589.276840,-69255.033019
3719.486131,-6809.894666,0.000000,-75690.235202
3719.488641,-1924.535449,-1184.329507,-77835.302597
3719.491151,-444.123565,1480.411884,-73545.167808
3719.493661,3108.864956,3404.947333,-76303.111601
3719.496171,1036.288319,5329.482782,-76609.549800
3719.498681,-13915.871710,5329.482782,-73238.729609
3719.501191,-3997.112087,1480.411884,-73698.386908
3719.503700,6069.688724,-1036.288319,-74311.263306
3719.506210,296.082377,5921.647536,-73391.948708
3719.508735,148.041188,7846.182985,-74158.044206
3719.511260,-10362.883188,2516.700203,-74924.139704
3719.513785,-1184.329507,1628.453072,-73085.510509
3719.516310,13471.748144,-888.247130,-74617.701505
3719.518834,3256.906145,-1776.494261,-75537.016103
3719.521359,-148.041188,-1924.535449,-74464.482406
3719.523884,-13323.706956,3108.864956,-73238.729609
3719.526409,-3552.988522,1480.411884,-74004.825107
3719.528934,7846.182985,2072.576638,-76609.549800
3719.531459,5921.647536,2812.782580,-78141.740796
3719.533983,-9622.677246,9622.677246,-73085.510509
3719.536508,-148.041188,-8290.306550,-77988.521696
3719.539033,-7994.224174,5033.400406,-74924.139704
3719.541558,6957.935855,-3108.864956,-75690.235202
3719.544083,740.205942,6069.688724,-74311.263306
3719.546608,-21910.095883,14359.995275,-66343.870127
3719.549132,5477.523971,-4293.194464,-83197.971083
3719.551657,-18357.107362,24722.878463,-67263.184724
3719.554182,7254.018232,6365.771101,-70634.004916
3719.556707,-1480.411884,-1628.453072,-79980.369991
3719.559232,-10362.883188,11695.253884,-66803.527426
3719.561757,-8586.388927,1036.288319,-76149.892501
3719.564281,-10955.047942,5773.606348,-76609.549800
3719.566806,4737.318029,9178.553681,-75077.358804
3719.569331,-1924.535449,9474.636058,-72932.291410
3719.571856,-8882.471304,7994.224174,-74158.044206
3719.574381,-12879.583391,5773.606348,-71553.319513
3719.576906,-10955.047942,4589.276840,-70787.224015
3719.579430,3404.947333,4885.359217,-75996.673402
3719.581955,-1776.494261,6069.688724,-75537.016103
3719.584480,-5921.647536,4145.153275,-75843.454302
3719.587005,-1480.411884,4589.276840,-73851.606007
3719.589530,-9030.512492,8882.471304,-71706.538613
3719.592055,3552.988522,888.247130,-76456.330700
3719.594579,-6069.688724,8882.471304,-76762.768900
3719.597104,-13323.706956,16432.571912,-72779.072310
3719.599629,-3552.988522,7550.100608,-76609.549800
3719.602154,-3849.070898,2812.782580,-76456.330700
3719.604679,-2220.617826,9474.636058,-69255.033019
3719.607204,-6069.688724,2072.576638,-72779.072310
3719.609741,-17024.736666,10362.883188,-76609.549800
3719.612277,4145.153275,2368.659014,-80440.027290
3719.614814,-8290.306550,6809.894666,-77528.864398
3719.617351,-1332.370696,5033.400406,-74924.139704
3719.619888,-3849.070898,9178.553681,-73238.729609
3719.622425,-18357.107362,5033.400406,-73085.510509
3719.624962,15396.283594,-10066.800811,-82585.094684
3719.627499,-16580.613101,14804.118840,-68029.280222
3719.630036,16136.489536,-12139.377449,-83964.066581
3719.632573,1776.494261,-4885.359217,-79214.274493
3719.635110,-16284.530724,12879.583391,-65577.774629
3719.637647,8142.265362,6365.771101,-73238.729609
3719.640184,8882.471304,-2664.741391,-75230.577904
3719.642721,-1776.494261,4589.276840,-71706.538613
3719.645258,-592.164754,3256.906145,-73391.948708
3719.647795,-7550.100608,-2220.617826,-78448.178995
3719.650332,740.205942,5181.441594,-70021.128517
3719.652869,3997.112087,-1036.288319,-72319.415011
3719.655406,888.247130,5181.441594,-75077.358804
3719.657943,-4293.194464,7254.018232,-71553.319513
3719.660480,-9326.594869,2516.700203,-75996.673402
3719.663017,-3256.906145,-888.247130,-77682.083497
3719.665554,-592.164754,5625.565159,-71246.881314
3719.668090,-4441.235652,6661.853478,-73238.729609
3719.670627,1036.288319,3701.029710,-72779.072310
3719.673164,7402.059420,1036.288319,-72472.634111
3719.675701,-1480.411884,1332.370696,-68488.937521
3719.678238,7402.059420,-7698.141797,-74158.044206
3719.680775,-10362.883188,3849.070898,-71093.662214
3719.683312,-1776.494261,2812.782580,-71246.881314
3719.685849,592.164754,-1924.535449,-76762.768900
3719.688386,5033.400406,7698.141797,-76456.330700
3719.690923,-4589.276840,7402.059420,-74770.920605
3719.693460,2516.700203,-3849.070898,-80899.684589
3719.695997,-11399.171507,-296.082377,-72472.634111
3719.698534,9030.512492,-8586.388927,-79367.493593
3719.701071,-5329.482782,17024.736666,-68335.718422
3719.703608,-3108.864956,-1924.535449,-76303.111601
3719.706145,-6809.894666,10658.965565,-74464.482406
3719.708682,-24130.713709,29460.196492,-64198.802732
3719.711169,8438.347739,2516.700203,-75996.673402
3719.713656,-2664.741391,2516.700203,-77222.426198
3719.716143,-10362.883188,9918.759623,-67263.184724
3719.718630,-6365.771101,-148.041188,-77682.083497
3719.721117,-7698.141797,7994.224174,-74158.044206
3719.723604,-3108.864956,13027.624579,-69408.252119
3719.726091,-2220.617826,8586.388927,-72932.291410
3719.728578,3108.864956,4441.235652,-76456.330700
3719.731065,-13175.665768,6809.894666,-72779.072310
3719.733552,-9030.512492,5625.565159,-73085.510509
3719.736039,6217.729913,3849.070898,-77069.207099
3719.738526,-5477.523971,9030.512492,-73545.167808
3719.741013,0.000000,6069.688724,-72012.976812
3719.743500,-3997.112087,3108.864956,-73545.167808
3719.745987,-10807.006753,6957.935855,-73391.948708
3719.748475,-6957.935855,8586.388927,-72472.634111
3719.750962,-5773.606348,11103.089130,-74617.701505
3719.753449,-1628.453072,10362.883188,-77375.645298
3719.755936,-6365.771101,11103.089130,-74004.825107
3719.758423,-12731.542202,9918.759623,-71859.757712
3719.760910,1776.494261,3404.947333,-73851.606007
3719.763397,-14508.036463,7550.100608,-70174.347617
3719.765884,1924.535449,7550.100608,-72472.634111
3719.768371,-4885.359217,10362.883188,-71093.662214
3719.770858,-3701.029710,5329.482782,-75537.016103
3719.773345,-13471.748144,14656.077652,-69714.690318
3719.775832,-4441.235652,-5181.441594,-78448.178995
3719.778319,10214.842000,1776.494261,-77222.426198
3719.780806,-11843.295072,12139.377449,-66803.527426
3719.783293,9622.677246,-15840.407159,-83044.751983
3719.785780,2220.617826,-740.205942,-76149.892501
3719.788267,-8882.471304,7698.141797,-68642.156621
3719.790754,3849.070898,-1184.329507,-82278.656485
3719.793241,3849.070898,5625.565159,-74770.920605
3719.795728,-1332.370696,6217.729913,-71553.319513
3719.798215,1924.535449,-2516.700203,-78294.959896
3719.800703,-2960.823768,296.082377,-74617.701505
3719.803190,-1480.411884,1628.453072,-74004.825107
3719.805677,9622.677246,-2516.700203,-75843.454302
3719.808164,-4589.276840,6661.853478,-70174.347617
3719.810673,-4293.194464,5181.441594,-70634.004916
3719.813182,-5773.606348,2812.782580,-75537.016103
3719.815691,-4589.276840,2516.700203,-76456.330700
3719.818200,5329.482782,3997.112087,-76149.892501
3719.820709,-1036.288319,2072.576638,-75690.235202
3719.823218,-3701.029710,4589.276840,-73545.167808
3719.825728,8586.388927,-3552.988522,-73698.386908
3719.828237,-4737.318029,-1332.370696,-70787.224015
3719.830746,5181.441594,-5033.400406,-75690.235202
3719.833255,-2960.823768,296.082377,-73085.510509
3719.835764,2368.659014,888.247130,-74617.701505
3719.838273,-1480.411884,3701.029710,-75230.577904
3719.840782,740.205942,888.247130,-77222.426198
3719.843291,-2072.576638,11251.130318,-72012.976812
3719.845800,2812.782580,-3404.947333,-75690.235202
3719.848310,-6957.935855,5033.400406,-72472.634111
3719.850819,-10955.047942,9030.512492,-68795.375720
3719.853328,11991.336260,-7698.141797,-83351.190182
3719.855837,-18209.066173,20429.683999,-68948.594820
3719.858346,-14508.036463,3997.112087,-78907.836294
3719.860855,3849.070898,6513.812290,-81972.218286
3719.863364,-7402.059420,14508.036463,-67263.184724
3719.865873,1776.494261,-1184.329507,-78907.836294
3719.868383,-7698.141797,4885.359217,-72779.072310
3719.870892,-7994.224174,5033.400406,-70787.224015
3719.873401,-7846.182985,2368.659014,-79980.369991
3719.875910,1480.411884,8586.388927,-78141.740796
3719.878419,-8882.471304,13323.706956,-73085.510509
3719.880928,-3552.988522,2664.741391,-77988.521696
3719.883437,-8142.265362,4737.318029,-74311.263306
3719.885946,-13619.789333,9030.512492,-69101.813920
3719.888456,-148.041188,3701.029710,-73851.606007
3719.890965,-2220.617826,740.205942,-77222.426198
3719.893474,-7698.141797,7254.018232,-73085.510509
3719.895983,-1036.288319,4293.194464,-76303.111601
3719.898492,-14656.077652,6365.771101,-74004.825107
3719.901001,-6217.729913,8142.265362,-69867.909418
3719.903510,-1924.535449,10362.883188,-70634.004916
3719.906019,-4441.235652,12287.418637,-74770.920605
3719.908529,-5181.441594,9178.553681,-75230.577904
3719.911055,-11843.295072,7402.059420,-74924.139704
3719.913582,-6809.894666,3997.112087,-76609.549800
3719.916109,444.123565,4589.276840,-74311.263306
3719.918635,-9030.512492,8882.471304,-71400.100414
3719.921162,3108.864956,8142.265362,-71400.100414
3719.923688,-9178.553681,14063.912898,-72779.072310
3719.926215,-9030.512492,2812.782580,-75843.454302
3719.928742,14804.118840,-3404.947333,-80899.684589
3719.931268,-16136.489536,12879.583391,-67876.061123
3719.933795,18505.148550,-17468.860231,-81665.780087
3719.936322,-10955.047942,2812.782580,-69101.813920
3719.938848,-5773.606348,3256.906145,-71093.662214
3719.941375,6809.894666,-2368.659014,-81972.218286
3719.943902,-4737.318029,11251.130318,-72166.195912
3719.946428,7254.018232,888.247130,-76456.330700
3719.948955,-5033.400406,-6513.812290,-79980.369991
3719.951482,-3997.112087,2220.617826,-74617.701505
3719.954008,-888.247130,-1332.370696,-70480.785816
3719.956535,1480.411884,-1036.288319,-76609.549800
3719.959062,1924.535449,3849.070898,-75690.235202
3719.961588,-1184.329507,4885.359217,-72472.634111
3719.964115,-7105.977043,1332.370696,-75383.797003
3719.966642,5477.523971,0.000000,-75996.673402
3719.969168,-3108.864956,7994.224174,-72472.634111
3719.971695,-1184.329507,3404.947333,-77375.645298
3719.974221,2812.782580,-888.247130,-76915.987999
3719.976748,2368.659014,1924.535449,-73545.167808
3719.979275,592.164754,-1628.453072,-72166.195912
3719.981801,-6069.688724,-148.041188,-71093.662214
3719.984328,3108.864956,-888.247130,-72779.072310
3719.986855,-3404.947333,-740.205942,-74464.482406
3719.989381,1036.288319,4293.194464,-75383.797003
3719.991908,-444.123565,10955.047942,-75843.454302
3719.994435,5625.565159,888.247130,-73545.167808
3719.996961,-6365.771101,2072.576638,-73545.167808
3719.999488,-296.082377,-5181.441594,-73391.948708
3720.002015,-1628.453072,5921.647536,-73545.167808
3720.004541,-11843.295072,10807.006753,-69255.033019
3720.007068,7402.059420,-3108.864956,-81972.218286
3720.009595,-22946.384202,27535.661042,-66190.651027
3720.012134,4737.318029,5625.565159,-73698.386908
3720.014673,-7550.100608,3701.029710,-79673.931792
3720.017212,-14063.912898,13175.665768,-68029.280222
3720.019751,-1036.288319,-5329.482782,-79520.712692
3720.022290,-9326.594869,6957.935855,-71246.881314
3720.024829,-3997.112087,12583.501014,-67722.842023
3720.027368,-7698.141797,9178.553681,-74464.482406
3720.029907,-3108.864956,4145.153275,-76762.768900
3720.032446,-5921.647536,5625.565159,-74004.825107
3720.034985,-6069.688724,6365.771101,-76149.892501
3720.037524,296.082377,4293.194464,-77222.426198
3720.040063,-8882.471304,5773.606348,-72166.195912
3720.042602,-5033.400406,5921.647536,-71400.100414
3720.045141,-148.041188,3701.029710,-72932.291410
3720.047680,-9030.512492,8734.430116,-73085.510509
3720.050219,-6365.771101,10510.924376,-72625.853210
3720.052758,-6513.812290,7550.100608,-74617.701505
3720.055297,-3108.864956,10658.965565,-74004.825107
3720.057836,-9770.718434,10362.883188,-71859.757712
3720.060375,-6513.812290,5033.400406,-77069.207099
3720.062914,-6809.894666,11547.212695,-72166.195912
3720.065453,-4293.194464,3404.947333,-72779.072310
3720.067992,-2072.576638,3108.864956,-77988.521696
3720.070531,-8882.471304,6957.935855,-72012.976812
3720.073070,-1036.288319,7402.059420,-73851.606007
3720.075609,-10658.965565,13027.624579,-67722.842023
3720.078148,11399.171507,-8586.388927,-79367.493593
3720.080687,-6957.935855,13767.830521,-71093.662214
3720.083226,2072.576638,-3404.947333,-73391.948708
3720.085765,5625.565159,-12139.377449,-82278.656485
3720.088304,-14804.118840,10362.883188,-66497.089226
3720.090843,4145.153275,1924.535449,-75230.577904
3720.093382,2368.659014,3404.947333,-76456.330700
3720.095921,4441.235652,7846.182985,-72319.415011
3720.098460,-9178.553681,5625.565159,-69561.471218
3720.100999,888.247130,-3256.906145,-77835.302597
3720.103538,-1924.535449,-2516.700203,-74004.825107
3720.106077,-592.164754,2368.659014,-71246.881314
3720.108616,4441.235652,1480.411884,-78754.617194
3720.111155,-8438.347739,4885.359217,-75077.358804
3720.113704,-8882.471304,3849.070898,-75690.235202
3720.116253,-1036.288319,1332.370696,-77375.645298
3720.118802,-2664.741391,3849.070898,-75537.016103
3720.121351,5921.647536,1924.535449,-75537.016103
3720.123900,3997.112087,-5773.606348,-76762.768900
3720.126449,-2072.576638,1924.535449,-75843.454302
3720.128998,-3256.906145,-2664.741391,-75537.016103
3720.131547,1480.411884,-5033.400406,-77222.426198
3720.134096,-296.082377,4885.359217,-71859.757712
3720.136644,-1332.370696,5181.441594,-70940.443115
3720.139193,-9178.553681,8734.430116,-75690.235202
3720.141742,8586.388927,-1628.453072,-74004.825107
3720.144291,1036.288319,6069.688724,-70327.566716
3720.146840,-13471.748144,5033.400406,-72472.634111
3720.149389,14211.954086,-7698.141797,-83044.751983
3720.151938,-31828.855506,22354.219448,-63739.145434
3720.154487,5181.441594,-1628.453072,-81665.780087
3720.157036,-2072.576638,16432.571912,-72932.291410
3720.159585,-12879.583391,17912.983796,-65577.774629
3720.162134,5921.647536,-2220.617826,-81052.903688
3720.164683,-19541.436869,10807.006753,-68335.718422
3720.167232,-2368.659014,2220.617826,-72932.291410
3720.169781,-3108.864956,1036.288319,-78141.740796
3720.172330,-7254.018232,11547.212695,-78907.836294
3720.174879,-1628.453072,11251.130318,-73698.386908
3720.177428,-8734.430116,6661.853478,-73545.167808
3720.179977,-9770.718434,2812.782580,-75230.577904
3720.182525,-5329.482782,6957.935855,-70021.128517
3720.185074,-7105.977043,5625.565159,-74158.044206
3720.187623,-592.164754,1628.453072,-77069.207099
3720.190172,-7105.977043,6217.729913,-72319.415011
3720.192721,-6069.688724,6513.812290,-75383.797003
3720.195270,-7550.100608,7105.977043,-76609.549800
3720.197819,-12435.459826,12435.459826,-72625.853210
3720.200368,-2664.741391,9622.677246,-74311.263306
3720.202917,-6661.853478,11251.130318,-75230.577904
3720.205466,-7105.977043,10955.047942,-72472.634111
3720.208015,-12139.377449,7698.141797,-73545.167808
3720.210564,-4441.235652,-2220.617826,-78601.398095
3720.213113,-1924.535449,3404.947333,-77069.207099
3720.215670,-7550.100608,5625.565159,-70634.004916
3720.218228,-444.123565,8882.471304,-75690.235202
3720.220785,-10658.965565,10658.965565,-71093.662214
3720.223342,4145.153275,-6513.812290,-79367.493593
3720.225900,-13619.789333,11695.253884,-68795.375720
3720.228457,8586.388927,-11843.295072,-77835.302597
3720.231014,6661.853478,-9178.553681,-79520.712692
3720.233572,-6513.812290,10362.883188,-67416.403824
3720.236129,888.247130,2072.576638,-79980.369991
3720.238686,2072.576638,4885.359217,-76762.768900
3720.241244,2220.617826,6069.688724,-71706.538613
3720.243801,-10066.800811,4441.235652,-70634.004916
3720.246358,4441.235652,-6365.771101,-76303.111601
3720.248916,-1924.535449,1036.288319,-72166.195912
3720.251473,296.082377,1924.535449,-76609.549800
3720.254030,2368.659014,1628.453072,-79520.712692
3720.256588,-11103.089130,6217.729913,-73851.606007
3720.259145,-1924.535449,2960.823768,-73085.510509
3720.261702,740.205942,-148.041188,-77069.207099
3720.264260,592.164754,3849.070898,-77069.207099
3720.266817,7994.224174,1480.411884,-76456.330700
3720.269374,-296.082377,444.123565,-77835.302597
3720.271932,148.041188,-3108.864956,-76303.111601
3720.274489,-3404.947333,-444.123565,-70021.128517
3720.277046,7105.977043,-6661.853478,-73698.386908
3720.279604,7994.224174,3256.906145,-73085.510509
3720.282161,-8882.471304,8290.306550,-74924.139704
3720.284718,4885.359217,2368.659014,-81665.780087
3720.287276,-4441.235652,-3108.864956,-74617.701505
3720.289833,1776.494261,444.123565,-73085.510509
3720.292391,-11399.171507,10214.842000,-68029.280222
3720.294948,11103.089130,-11991.336260,-84883.381178
3720.297510,-17024.736666,20429.683999,-67109.965625
3720.300073,-19393.395680,13915.871710,-72625.853210
3720.302636,6513.812290,888.247130,-84576.942979
3720.305198,-13175.665768,15988.448347,-64352.021832
3720.307761,-296.082377,148.041188,-78141.740796
3720.310324,-3997.112087,1332.370696,-79980.369991
3720.312886,-7994.224174,8586.388927,-71706.538613
3720.315449,-8142.265362,5477.523971,-79367.493593
3720.318011,-2368.659014,5181.441594,-78294.959896
3720.320574,-3997.112087,10214.842000,-71093.662214
3720.323137,-10214.842000,6661.853478,-70940.443115
3720.325699,-4293.194464,-592.164754,-75996.673402
3720.328262,-6957.935855,9030.512492,-72472.634111
3720.330824,-888.247130,7550.100608,-72625.853210
3720.333387,888.247130,1332.370696,-75843.454302
3720.335950,-8586.388927,5329.482782,-72319.415011
3720.338512,-4737.318029,6513.812290,-71553.319513
3720.341075,-12287.418637,10066.800811,-73851.606007
3720.343638,-1924.535449,6957.935855,-80133.589091
3720.346200,-9474.636058,12583.501014,-74617.701505
3720.348763,-8290.306550,9474.636058,-75383.797003
3720.351325,-5477.523971,5773.606348,-74770.920605
3720.353888,2812.782580,-1776.494261,-74158.044206
3720.356451,-6957.935855,5033.400406,-72319.415011
3720.359013,1924.535449,3256.906145,-73851.606007
3720.361576,-6661.853478,13175.665768,-75843.454302
3720.364138,-11251.130318,5921.647536,-75690.235202
3720.366701,9622.677246,-7550.100608,-82738.313784
3720.369264,-15840.407159,14359.995275,-66956.746525
3720.371826,19097.313304,-18357.107362,-84576.942979
3720.374389,-4145.153275,-1776.494261,-75230.577904
3720.376951,-4885.359217,5921.647536,-69714.690318
3720.379514,1036.288319,-2664.741391,-78294.959896
3720.382077,0.000000,10066.800811,-71246.881314
3720.384639,4293.194464,3997.112087,-71246.881314
3720.387202,-444.123565,-4737.318029,-74311.263306
3720.389765,296.082377,-4441.235652,-80286.808190
3720.392327,1184.329507,1332.370696,-74158.044206
3720.394890,-2072.576638,2516.700203,-74924.139704
3720.397452,4145.153275,5033.400406,-76303.111601
3720.400019,-3404.947333,3256.906145,-73238.729609
3720.402586,-6365.771101,3256.906145,-74158.044206
3720.405153,-3849.070898,5773.606348,-72779.072310
3720.407720,-5477.523971,3256.906145,-74158.044206
3720.410287,11843.295072,3108.864956,-73545.167808
3720.412854,-444.123565,1924.535449,-73545.167808
3720.415421,2072.576638,-2516.700203,-74311.263306
3720.417988,-4441.235652,1332.370696,-70940.443115
3720.420555,-6513.812290,-1628.453072,-73851.606007
3720.423122,11991.336260,740.205942,-73391.948708
3720.425689,-5329.482782,9622.677246,-74617.701505
3720.428256,-2664.741391,3404.947333,-75843.454302
3720.430823,-740.205942,-1036.288319,-78754.617194
3720.433390,-4293.194464,-5477.523971,-78448.178995
3720.435957,3108.864956,7698.141797,-72012.976812
3720.438524,-10955.047942,2072.576638,-70634.004916
3720.441091,4293.194464,1036.288319,-79827.150892
3720.443658,-24130.713709,32569.061448,-60674.763442
3720.446225,3997.112087,2664.741391,-80899.684589
3720.448792,-4293.194464,5329.482782,-76915.987999
3720.451359,-13027.624579,10658.965565,-67263.184724
3720.453926,-2960.823768,-3108.864956,-77988.521696
3720.456493,-3404.947333,3404.947333,-72625.853210
3720.459060,-13175.665768,17320.819043,-66803.527426
3720.461628,-3849.070898,13767.830521,-75690.235202
3720.464195,2220.617826,4145.153275,-79827.150892
3720.466762,-12435.459826,6957.935855,-71553.319513
3720.469329,-740.205942,4885.359217,-72472.634111
3720.471896,-1628.453072,3256.906145,-78141.740796
3720.474463,-8882.471304,4145.153275,-75077.358804
3720.477030,-888.247130,3552.988522,-73698.386908
3720.479597,-11399.171507,6069.688724,-73851.606007
3720.482164,-3997.112087,9770.718434,-72779.072310
3720.484731,-11251.130318,13471.748144,-68488.937521
3720.487298,-8882.471304,13027.624579,-71553.319513
3720.489865,6809.894666,7994.224174,-74617.701505
3720.492432,-19097.313304,14063.912898,-72319.415011
3720.494999,3404.947333,3108.864956,-75077.358804
3720.497566,-12139.377449,4441.235652,-71246.881314
3720.500133,-11251.130318,6661.853478,-70480.785816
3720.502656,2812.782580,13471.748144,-71400.100414
3720.505179,-13027.624579,4737.318029,-75690.235202
3720.507701,9030.512492,-3256.906145,-82278.656485
3720.510224,-16728.654289,13323.706956,-67569.622924
3720.512747,12583.501014,-17468.860231,-84270.504780
3720.515270,6217.729913,-4737.318029,-74924.139704
3720.517793,-9326.594869,3404.947333,-71553.319513
3720.520316,2072.576638,-2220.617826,-83964.066581
3720.522839,1332.370696,9326.594869,-74158.044206
3720.525361,-5773.606348,5625.565159,-70940.443115
3720.527884,8290.306550,-7105.977043,-79367.493593
3720.530407,-6809.894666,0.000000,-73545.167808
3720.532930,-2368.659014,888.247130,-74464.482406
3720.535453,4589.276840,0.000000,-76609.549800
3720.537976,-5773.606348,7846.182985,-74617.701505
3720.540498,-1776.494261,4441.235652,-71400.100414
3720.543021,1184.329507,-2220.617826,-74924.139704
3720.545544,-6809.894666,6217.729913,-72932.291410
3720.548067,5921.647536,4293.194464,-73698.386908
3720.550590,1924.535449,-2812.782580,-76456.330700
3720.553113,5033.400406,-4589.276840,-76915.987999
3720.555635,-2072.576638,-7105.977043,-76915.987999
3720.558158,-10510.924376,-4145.153275,-75690.235202
3720.560681,7105.977043,2368.659014,-74311.263306
3720.563204,-2812.782580,7698.141797,-70327.566716
3720.565727,5477.523971,6365.771101,-76609.549800
3720.568250,-3997.112087,-740.205942,-74464.482406
3720.570773,6809.894666,-7105.977043,-80286.808190
3720.573295,-11547.212695,11399.171507,-70480.785816
3720.575818,-1332.370696,-5773.606348,-74770.920605
3720.578341,-740.205942,9030.512492,-74004.825107
3720.580864,-19837.519246,27387.619854,-66497.089226
3720.583387,5477.523971,-148.041188,-86262.353075
3720.585910,-15100.201217,12583.501014,-70327.566716
3720.588432,-6513.812290,7846.182985,-70634.004916
3720.590955,-1480.411884,-3108.864956,-79520.712692
3720.593478,-4589.276840,6069.688724,-73545.167808
3720.596001,-12287.418637,10510.924376,-73085.510509
3720.598524,-4885.359217,8734.430116,-78141.740796
3720.601047,-4737.318029,12583.501014,-71093.662214
3720.603582,-7698.141797,6957.935855,-69255.033019
3720.606118,-3997.112087,888.247130,-74311.263306
3720.608653,-1480.411884,6513.812290,-74464.482406
3720.611189,-7846.182985,5477.523971,-76762.768900
3720.613724,-1184.329507,2664.741391,-78141.740796
3720.616260,-9622.677246,3997.112087,-74617.701505
3720.618795,-7994.224174,13471.748144,-71553.319513
3720.621331,-9622.677246,13619.789333,-71246.881314
3720.623866,-6365.771101,11251.130318,-74004.825107
3720.626402,2220.617826,8142.265362,-73545.167808
3720.628937,-15988.448347,11103.089130,-72779.072310
3720.631472,-5033.400406,1776.494261,-76915.987999
3720.634008,-5033.400406,1184.329507,-75843.454302
3720.636543,-7846.182985,3108.864956,-76915.987999
3720.639079,2368.659014,14211.954086,-73085.510509
3720.641614,-13323.706956,14359.995275,-67569.622924
3720.644150,9178.553681,-7698.141797,-80746.465489
3720.646685,-7994.224174,11251.130318,-68488.937521
3720.649221,-8734.430116,-3701.029710,-71706.538613
3720.651756,23242.466579,-17320.819043,-86109.133975
3720.654292,-14063.912898,13471.748144,-65118.117330
3720.656827,-296.082377,2664.741391,-80133.589091
3720.659363,5921.647536,2812.782580,-76149.892501
3720.661898,-6365.771101,9326.594869,-68948.594820
3720.664434,2516.700203,-2960.823768,-75230.577904
3720.666969,5329.482782,-6661.853478,-78448.178995
3720.669505,-8882.471304,3108.864956,-73545.167808
3720.672040,1776.494261,444.123565,-75230.577904
3720.674576,-6069.688724,4293.194464,-75690.235202
3720.677111,-3404.947333,1480.411884,-75230.577904
3720.679647,1480.411884,4293.194464,-69867.909418
3720.682182,-7846.182985,6957.935855,-73391.948708
3720.684718,10066.800811,-296.082377,-78907.836294
3720.687253,1332.370696,-1480.411884,-72472.634111
3720.689789,592.164754,-2664.741391,-70174.347617
3720.692324,5033.400406,-6513.812290,-71859.757712
3720.694860,-11991.336260,5329.482782,-70940.443115
3720.697395,5329.482782,2812.782580,-73545.167808
3720.699930,2072.576638,7105.977043,-75230.577904
3720.702466,3701.029710,4885.359217,-73238.729609
3720.705012,-3256.906145,1184.329507,-77069.207099
3720.707557,-12287.418637,-8290.306550,-80593.246390
3720.710103,3404.947333,1628.453072,-83351.190182
3720.712649,-18505.148550,19985.560434,-65118.117330
3720.715195,-1036.288319,888.247130,-81818.999186
3720.717741,1480.411884,16136.489536,-73698.386908
3720.720286,-22058.137072,17468.860231,-64505.240932
3720.722832,3404.947333,-4885.359217,-80593.246390
3720.725378,-5181.441594,6069.688724,-70174.347617
3720.727924,-8734.430116,3404.947333,-75230.577904
3720.730469,4737.318029,-1036.288319,-82891.532884
3720.733015,-16432.571912,14656.077652,-73085.510509
3720.735561,-11251.130318,14656.077652,-72319.415011
3720.738107,2516.700203,1332.370696,-77835.302597
3720.740652,-12583.501014,4145.153275,-72625.853210
3720.743198,-888.247130,7846.182985,-72319.415011
3720.745744,-9326.594869,6957.935855,-73238.729609
3720.748290,-9030.512492,4441.235652,-74770.920605
3720.750835,444.123565,4293.194464,-72779.072310
3720.753381,-13915.871710,14211.954086,-71706.538613
3720.755927,-11695.253884,14804.118840,-72625.853210
3720.758473,-3108.864956,13175.665768,-73391.948708
3720.761018,-7254.018232,10214.842000,-71093.662214
3720.763564,-444.123565,8882.471304,-73391.948708
3720.766110,-13619.789333,2516.700203,-72012.976812
3720.768656,-5773.606348,2516.700203,-75383.797003
3720.771201,-5921.647536,6217.729913,-72012.976812
3720.773747,444.123565,13175.665768,-73085.510509
3720.776293,-3849.070898,8734.430116,-70634.004916
3720.778839,5773.606348,-6069.688724,-79980.369991
3720.781384,-15988.448347,14508.036463,-66956.746525
3720.783930,-11843.295072,-1332.370696,-67416.403824
3720.786476,13619.789333,-17024.736666,-85802.695776
3720.789022,-4441.235652,9918.759623,-69101.813920
3720.791567,-1924.535449,5477.523971,-76456.330700
3720.794113,1480.411884,3701.029710,-76456.330700
3720.796659,-4441.235652,5477.523971,-69255.033019
3720.799205,-2516.700203,2368.659014,-72779.072310
3720.801751,9918.759623,-7698.141797,-80746.465489
3720.804296,-3997.112087,444.123565,-74770.920605
3720.806851,-7846.182985,3997.112087,-73238.729609
3720.809405,1924.535449,5329.482782,-74617.701505
3720.811959,-7994.224174,3256.906145,-73851.606007
3720.814514,2516.700203,296.082377,-74464.482406
3720.817068,-4589.276840,6661.853478,-74770.920605
3720.819622,-444.123565,3108.864956,-74617.701505
3720.822177,11991.336260,-10807.006753,-77988.521696
3720.824731,-296.082377,-7698.141797,-75843.454302
3720.827285,-5921.647536,-148.041188,-74158.044206
3720.829840,2368.659014,-1628.453072,-77835.302597
3720.832394,-10066.800811,10807.006753,-74464.482406
3720.834948,13619.789333,2516.700203,-77682.083497
3720.837503,-5921.647536,-1776.494261,-75996.673402
3720.840057,8882.471304,-4737.318029,-76149.892501
3720.842612,-17024.736666,11547.212695,-65884.212828
3720.845166,-3552.988522,-7402.059420,-79367.493593
3720.847720,6069.688724,13323.706956,-70480.785816
3720.850275,-26055.249158,25759.166782,-65577.774629
3720.852829,7402.059420,148.041188,-87334.886772
3720.855383,-5181.441594,3404.947333,-78448.178995
3720.857938,-19393.395680,14359.995275,-67263.184724
3720.860492,6513.812290,-4293.194464,-78448.178995
3720.863046,-888.247130,2516.700203,-73698.386908
3720.865601,-13915.871710,16580.613101,-68948.594820
3720.868155,-3256.906145,8290.306550,-76456.330700
3720.870709,-8142.265362,10807.006753,-73545.167808
3720.873264,-2664.741391,5625.565159,-69101.813920
3720.875818,-740.205942,0.000000,-74311.263306
3720.878372,-8586.388927,7254.018232,-75843.454302
3720.880927,-4145.153275,7402.059420,-73391.948708
3720.883481,-12435.459826,5921.647536,-72472.634111
3720.886035,-7994.224174,5033.400406,-72166.195912
3720.888590,-6809.894666,15988.448347,-71859.757712
3720.891144,-7550.100608,14952.160028,-71706.538613
3720.893699,1332.370696,4441.235652,-76609.549800
3720.896253,-6365.771101,8290.306550,-75077.358804
3720.898807,-7698.141797,4293.194464,-75383.797003
3720.901362,0.000000,-2220.617826,-80593.246390
3720.903916,-15544.324782,8586.388927,-71706.538613
3720.906470,6069.688724,9326.594869,-74464.482406
3720.908987,-8734.430116,9918.759623,-71093.662214
3720.911505,14656.077652,-6809.894666,-80593.246390
3720.914022,-19097.313304,15840.407159,-64811.679131
3720.916539,148.041188,-13027.624579,-80286.808190
3720.919056,14804.118840,-13027.624579,-82125.437386
3720.921574,-11547.212695,11547.212695,-65424.555529
3720.924091,7105.977043,-3849.070898,-84883.381178
3720.926608,0.000000,8734.430116,-74770.920605
3720.929125,-7994.224174,7402.059420,-69101.813920
3720.931642,-1924.535449,1036.288319,-73391.948708
3720.934160,4885.359217,-8290.306550,-77528.864398
3720.936677,-6069.688724,-148.041188,-75077.358804
3720.939194,1924.535449,2960.823768,-73698.386908
3720.941711,-2664.741391,7994.224174,-74617.701505
3720.944229,-4145.153275,2368.659014,-74464.482406
3720.946746,-1924.535449,1776.494261,-72932.291410
3720.949263,-5625.565159,3552.988522,-77222.426198
3720.951780,8734.430116,-1628.453072,-75383.797003
3720.954298,0.000000,-5033.400406,-76609.549800
3720.956815,10362.883188,-9474.636058,-78601.398095
3720.959332,-6365.771101,3997.112087,-74770.920605
3720.961849,-6809.894666,4885.359217,-73545.167808
3720.964366,6957.935855,4737.318029,-74770.920605
3720.966884,7550.100608,444.123565,-72932.291410
3720.969401,-2220.617826,8142.265362,-72932.291410
3720.971918,-17320.819043,7846.182985,-68642.156621
3720.974435,9770.718434,-11547.212695,-85496.257577
3720.976953,-15544.324782,21762.054695,-66956.746525
3720.979470,-7550.100608,9326.594869,-72932.291410
3720.981987,-296.082377,7994.224174,-80286.808190
3720.984504,-15544.324782,17320.819043,-64505.240932
3720.987021,-5329.482782,-888.247130,-78754.617194
3720.989539,-2072.576638,1184.329507,-75690.235202
3720.992056,-3404.947333,5773.606348,-71400.100414
3720.994573,-3849.070898,1776.494261,-78448.178995
3720.997090,-4441.235652,9918.759623,-76303.111601
3720.999608,-16284.530724,16876.695478,-69561.471218
3721.002125,-1480.411884,5477.523971,-70940.443115
3721.004642,5921.647536,-1184.329507,-76915.987999
3721.007159,-3849.070898,6809.894666,-76303.111601
3721.009691,-3108.864956,6217.729913,-76915.987999
3721.012223,-4589.276840,-740.205942,-76915.987999
3721.014755,-19541.436869,7254.018232,-73698.386908
3721.017287,1332.370696,11695.253884,-77069.207099
3721.019819,-9474.636058,16432.571912,-76303.111601
3721.022351,-1628.453072,7105.977043,-77835.302597
3721.024883,-7994.224174,12287.418637,-72625.853210
3721.027415,-7698.141797,2368.659014,-74770.920605
3721.029947,1924.535449,-2516.700203,-79214.274493
3721.032478,-15396.283594,8290.306550,-72319.415011
3721.035010,1332.370696,11843.295072,-73698.386908
3721.037542,-6661.853478,14211.954086,-68182.499322
3721.040074,-1036.288319,-4145.153275,-75383.797003
3721.042606,10510.924376,5625.565159,-71706.538613
3721.045138,-10955.047942,740.205942,-69408.252119
3721.047670,13471.748144,-14508.036463,-85955.914876
3721.050202,-6365.771101,7994.224174,-68335.718422
3721.052734,-7105.977043,8290.306550,-75077.358804
3721.055266,7994.224174,1924.535449,-77835.302597
3721.057798,-5033.400406,6365.771101,-67876.061123
3721.060330,-1184.329507,888.247130,-72625.853210
3721.062862,7402.059420,-9770.718434,-77988.521696
3721.065393,-6809.894666,1184.329507,-74004.825107
3721.067925,-1628.453072,5773.606348,-73391.948708
3721.070457,-2072.576638,5033.400406,-77528.864398
3721.072989,-6661.853478,-444.123565,-74004.825107
3721.075521,3108.864956,-1628.453072,-75690.235202
3721.078053,740.205942,4589.276840,-74924.139704
3721.080585,13027.624579,296.082377,-77528.864398
3721.083117,9474.636058,-10658.965565,-77835.302597
3721.085649,-15692.365970,5477.523971,-67569.622924
3721.088181,5773.606348,148.041188,-73085.510509
3721.090713,-9622.677246,7105.977043,-72166.195912
3721.093245,5625.565159,8734.430116,-71400.100414
3721.095777,4293.194464,-3108.864956,-73085.510509
3721.098308,3552.988522,888.247130,-72319.415011
3721.100840,-17616.901420,12287.418637,-66650.308326
3721.103372,2516.700203,-11547.212695,-82738.313784
3721.105904,-2516.700203,17468.860231,-69561.471218
3721.108436,-18505.148550,20281.642811,-68182.499322
3721.110980,2072.576638,-148.041188,-85343.038477
3721.113524,-11843.295072,10066.800811,-75690.235202
3721.116067,-16284.530724,12879.583391,-68795.375720
3721.118611,3849.070898,-6513.812290,-81359.341888
3721.121155,3997.112087,3256.906145,-73391.948708
3721.123698,-16728.654289,16136.489536,-68335.718422
3721.126242,-3997.112087,7254.018232,-79980.369991
3721.128786,-5329.482782,9918.759623,-74004.825107
3721.131329,-5329.482782,6661.853478,-67876.061123
3721.133873,4145.153275,-1332.370696,-72319.415011
3721.136417,-5181.441594,9474.636058,-73545.167808
3721.138960,-5181.441594,5921.647536,-76762.768900
3721.141504,-10066.800811,1924.535449,-78754.617194
3721.144048,-14063.912898,13471.748144,-71553.319513
3721.146592,-2664.741391,15840.407159,-69408.252119
3721.149135,-5625.565159,7402.059420,-75843.454302
3721.151679,-12435.459826,12435.459826,-72472.634111
3721.154223,-3108.864956,1776.494261,-74158.044206
3721.156766,-7994.224174,-1332.370696,-81665.780087
3721.159310,148.041188,5033.400406,-76609.549800
3721.161854,-6661.853478,15988.448347,-70327.566716
3721.164397,-12435.459826,5477.523971,-73238.729609
3721.166941,15100.201217,-4293.194464,-77222.426198
3721.169485,-23242.466579,14508.036463,-64352.021832
3721.172029,20281.642811,-18505.148550,-85802.695776
3721.174572,-2072.576638,-1776.494261,-73238.729609
3721.177116,-7254.018232,4737.318029,-69101.813920
3721.179660,10807.006753,-6957.935855,-79520.712692
3721.182203,-8586.388927,12435.459826,-71706.538613
3721.184747,-3256.906145,11843.295072,-69408.252119
3721.187291,6809.894666,-4441.235652,-77835.302597
3721.189834,-1036.288319,-2664.741391,-75690.235202
3721.192378,-1036.288319,1332.370696,-71553.319513
3721.194922,-6957.935855,3552.988522,-73238.729609
3721.197465,-1924.535449,1184.329507,-79061.055394
3721.200009,4441.235652,3108.864956,-73238.729609
3721.202553,-7105.977043,5477.523971,-73851.606007
3721.205097,4737.318029,296.082377,-78294.959896
3721.207640,5181.441594,-2960.823768,-75996.673402
3721.210184,7402.059420,-8142.265362,-73698.386908
3721.212736,444.123565,-5033.400406,-72932.291410
3721.215288,-5181.441594,3108.864956,-76303.111601
3721.217841,-4145.153275,9918.759623,-74464.482406
3721.220393,9178.553681,2812.782580,-76456.330700
3721.222945,-6069.688724,1184.329507,-76609.549800
3721.225497,7105.977043,-10955.047942,-78601.398095
3721.228049,-13323.706956,7994.224174,-72319.415011
3721.230602,-11991.336260,296.082377,-74311.263306
3721.233154,10807.006753,2812.782580,-79827.150892
3721.235706,-23242.466579,34937.720462,-61440.858940
3721.238258,9178.553681,296.082377,-83197.971083
3721.240811,-15396.283594,6661.853478,-75843.454302
3721.243363,-14211.954086,14804.118840,-68488.937521
3721.245915,2220.617826,-5773.606348,-81206.122788
3721.248467,-148.041188,3997.112087,-75843.454302
3721.251019,-7402.059420,14804.118840,-69255.033019
3721.253572,-11251.130318,9474.636058,-74617.701505
3721.256124,-10955.047942,7846.182985,-76762.768900
3721.258676,-444.123565,1184.329507,-72166.195912
3721.261228,-3849.070898,6217.729913,-71093.662214
3721.263781,1332.370696,5181.441594,-79520.712692
3721.266333,-4885.359217,4737.318029,-77682.083497
3721.268885,-20281.642811,11251.130318,-73238.729609
3721.271437,-9326.594869,11399.171507,-75230.577904
3721.273989,-4885.359217,9474.636058,-78907.836294
3721.276542,-4885.359217,14804.118840,-72932.291410
3721.279094,-4293.194464,7402.059420,-72932.291410
3721.281646,-6365.771101,2516.700203,-71706.538613
3721.284198,-5921.647536,5329.482782,-68642.156621
3721.286751,-13027.624579,5921.647536,-73851.606007
3721.289303,12435.459826,4145.153275,-75537.016103
3721.291855,-13027.624579,15692.365970,-66956.746525
3721.294407,-19245.354492,2220.617826,-73698.386908
3721.296959,24130.713709,-10658.965565,-82278.656485
3721.299512,-15248.242405,9622.677246,-62973.049936
3721.302064,9474.636058,-9770.718434,-79520.712692
3721.304616,592.164754,-2220.617826,-74004.825107
3721.307168,-12583.501014,15840.407159,-66343.870127
3721.309721,10066.800811,-1036.288319,-80286.808190
3721.312273,-740.205942,3701.029710,-75383.797003
3721.314832,-1332.370696,7254.018232,-70327.566716
3721.317392,7254.018232,-8586.388927,-79520.712692
3721.319951,-10807.006753,-888.247130,-75537.016103
3721.322511,-1036.288319,7698.141797,-72472.634111
3721.325071,-5625.565159,6809.894666,-74464.482406
3721.327630,592.164754,0.000000,-76915.987999
3721.330190,1924.535449,740.205942,-75537.016103
3721.332749,1480.411884,2812.782580,-75843.454302
3721.335309,9622.677246,-10510.924376,-78448.178995
3721.337868,-592.164754,-3108.864956,-73238.729609
3721.340428,-7105.977043,4293.194464,-71859.757712
3721.342988,592.164754,4589.276840,-78448.178995
3721.345547,-2664.741391,10510.924376,-72166.195912
3721.348107,2220.617826,592.164754,-71246.881314
3721.350666,11399.171507,-10066.800811,-75383.797003
3721.353226,-18653.189738,12731.542202,-68642.156621
3721.355786,1628.453072,-9178.553681,-82125.437386
3721.358345,-3552.988522,12583.501014,-76456.330700
3721.360905,-19837.519246,28423.908173,-66037.431928
3721.363464,7105.977043,5329.482782,-75843.454302
3721.366024,-12731.542202,3404.947333,-77069.207099
3721.368583,-10807.006753,13915.871710,-67263.184724
3721.371143,-3108.864956,-3552.988522,-78448.178995
3721.373703,148.041188,3404.947333,-75843.454302
3721.376262,-6069.688724,14063.912898,-68029.280222
3721.378822,-11251.130318,10807.006753,-75077.358804
3721.381381,-9178.553681,8290.306550,-74464.482406
3721.383941,-4441.235652,4293.194464,-69867.909418
3721.386500,-4885.359217,5625.565159,-73391.948708
3721.389060,1036.288319,6661.853478,-76456.330700
3721.391620,-12583.501014,6217.729913,-76915.987999
3721.394179,-9030.512492,13323.706956,-73851.606007
3721.396739,-10510.924376,17024.736666,-68795.375720
3721.399298,-3552.988522,13027.624579,-70480.785816
3721.401858,2220.617826,9918.759623,-75690.235202
3721.404417,-9918.759623,3849.070898,-73851.606007
3721.406977,-5921.647536,-888.247130,-81359.341888
3721.409537,-5921.647536,3108.864956,-76303.111601
3721.412096,-3997.112087,13323.706956,-74158.044206
3721.414656,-4885.359217,11695.253884,-69561.471218
3721.417221,10066.800811,-3256.906145,-74158.044206
3721.419786,-23390.507767,13619.789333,-62360.173537
3721.422352,13027.624579,-16728.654289,-80899.684589
3721.424917,4441.235652,-8438.347739,-79214.274493
3721.427483,-4145.153275,9178.553681,-68182.499322
3721.430048,5773.606348,-5329.482782,-79827.150892
3721.432614,-2368.659014,8142.265362,-74924.139704
3721.435180,-3701.029710,10362.883188,-71706.538613
3721.437745,1776.494261,-1480.411884,-75996.673402
3721.440311,6513.812290,-7402.059420,-79673.931792
3721.442876,-2516.700203,296.082377,-71706.538613
3721.445442,-7402.059420,7402.059420,-73085.510509
3721.448007,-592.164754,3849.070898,-77835.302597
3721.450573,3256.906145,-1184.329507,-76456.330700
3721.453138,592.164754,5033.400406,-73391.948708
3721.455704,-1332.370696,-2960.823768,-76609.549800
3721.458269,8438.347739,-12879.583391,-82278.656485
3721.460835,-148.041188,-6513.812290,-77528.864398
3721.463401,-444.123565,-5477.523971,-77682.083497
3721.465966,-1036.288319,5625.565159,-76762.768900
3721.468532,1628.453072,9030.512492,-75230.577904
3721.471097,-592.164754,-3108.864956,-78448.178995
3721.473663,14063.912898,-1036.288319,-71093.662214
3721.476228,-29312.155303,10807.006753,-66497.089226
3721.478794,-13619.789333,-4737.318029,-77682.083497
3721.481359,11991.336260,4441.235652,-78448.178995
3721.483925,-29312.155303,34789.679274,-63279.488135
3721.486490,8882.471304,-1332.370696,-88254.201370
3721.489056,-9326.594869,10066.800811,-73085.510509
3721.491622,-21169.889941,15248.242405,-68488.937521
3721.494187,6069.688724,-6957.935855,-82278.656485
3721.496753,-2072.576638,5773.606348,-74464.482406
3721.499318,-10362.883188,12287.418637,-68642.156621
3721.501884,-4145.153275,6217.729913,-76609.549800
3721.504449,-15692.365970,13027.624579,-72166.195912
3721.507015,1924.535449,3997.112087,-73391.948708
3721.509580,-6069.688724,5625.565159,-72472.634111
3721.512146,-2664.741391,6661.853478,-72166.195912
3721.514711,-5181.441594,6957.935855,-74004.825107
3721.517277,-18653.189738,12287.418637,-71859.757712
3721.519846,-7550.100608,15100.201217,-70634.004916
3721.522416,-5477.523971,11251.130318,-72319.415011
3721.524985,-2812.782580,14359.995275,-72932.291410
3721.527555,-5329.482782,2960.823768,-74158.044206
3721.530124,-9770.718434,-296.082377,-77988.521696
3721.532694,-2072.576638,1628.453072,-76303.111601
3721.535263,-5329.482782,9474.636058,-75230.577904
3721.537833,-8438.347739,9474.636058,-73085.510509
3721.540402,15396.283594,-6069.688724,-79827.150892
3721.542972,-26203.290347,15988.448347,-64045.583633
3721.545541,15544.324782,-18653.189738,-83197.971083
3721.548111,5033.400406,-21021.848753,-91471.802461
3721.550680,-11103.089130,14656.077652,-68335.718422
3721.553250,1480.411884,1036.288319,-77222.426198
3721.555819,2960.823768,-592.164754,-76762.768900
3721.558389,-7105.977043,13767.830521,-67876.061123
3721.560958,2812.782580,-1628.453072,-76303.111601
3721.563528,6661.853478,-7846.182985,-80286.808190
3721.566097,2368.659014,-740.205942,-73391.948708
3721.568667,-6217.729913,6217.729913,-72779.072310
3721.571236,-8290.306550,7105.977043,-75690.235202
3721.573806,3552.988522,-3997.112087,-79827.150892
3721.576375,0.000000,4737.318029,-75996.673402
3721.578945,14656.077652,296.082377,-79520.712692
3721.581514,-2368.659014,-11251.130318,-79980.369991
3721.584084,-3256.906145,-3552.988522,-69714.690318
3721.586653,1924.535449,3849.070898,-67263.184724
3721.589223,-1036.288319,8438.347739,-74311.263306
3721.591792,9326.594869,5773.606348,-74464.482406
3721.594362,-3701.029710,6217.729913,-75383.797003
3721.596931,-10510.924376,-5625.565159,-77222.426198
3721.599501,4145.153275,-2812.782580,-77375.645298
3721.602070,-25018.960840,11991.336260,-67109.965625
3721.604639,19393.395680,-5625.565159,-87641.324971
3721.607209,-19245.354492,33161.226202,-61900.516238
3721.609778,-9918.759623,15544.324782,-71093.662214
3721.612348,1924.535449,-3108.864956,-78907.836294
3721.614917,-16728.654289,14804.118840,-64352.021832
3721.617487,-888.247130,4589.276840,-73545.167808
3721.620056,2220.617826,-2960.823768,-77682.083497
3721.622629,-13915.871710,9178.553681,-75230.577904
3721.625202,-5921.647536,15100.201217,-72779.072310
3721.627775,740.205942,4885.359217,-76149.892501
3721.630348,-5181.441594,2368.659014,-73545.167808
3721.632921,-1776.494261,2812.782580,-72472.634111
3721.635494,-11695.253884,7254.018232,-75996.673402
3721.638067,-9030.512492,6217.729913,-77528.864398
3721.640640,-10510.924376,14211.954086,-73851.606007
3721.643213,-7254.018232,15248.242405,-73545.167808
3721.645786,-6069.688724,15988.448347,-73545.167808
3721.648359,-8142.265362,6957.935855,-73391.948708
3721.650932,-1480.411884,-444.123565,-77222.426198
3721.653505,-7846.182985,4293.194464,-70634.004916
3721.656077,-12287.418637,12879.583391,-73545.167808
3721.658650,2960.823768,6661.853478,-76149.892501
3721.661223,9326.594869,-2072.576638,-79367.493593
3721.663796,-19689.478057,14359.995275,-65424.555529
3721.666369,15100.201217,-21465.972318,-83657.628382
3721.668942,-1924.535449,-3108.864956,-73698.386908
3721.671515,1184.329507,2664.741391,-71553.319513
3721.674088,7698.141797,-7105.977043,-83197.971083
3721.676661,-6809.894666,10807.006753,-71400.100414
3721.679234,-6365.771101,6661.853478,-70787.224015
3721.681807,2220.617826,-6957.935855,-85343.038477
3721.684380,3849.070898,3256.906145,-74770.920605
3721.686953,-3701.029710,1628.453072,-71553.319513
3721.689526,-7254.018232,-1480.411884,-76149.892501
3721.692099,-2368.659014,-296.082377,-78448.178995
3721.694671,-3552.988522,1924.535449,-72932.291410
3721.697244,6217.729913,2516.700203,-74617.701505
3721.699817,14211.954086,-9770.718434,-82278.656485
3721.702390,-5329.482782,-2812.782580,-77222.426198
3721.704965,-1184.329507,-5625.565159,-75843.454302
3721.707540,-4885.359217,-5625.565159,-76762.768900
3721.710115,4441.235652,10362.883188,-70940.443115
3721.712690,8290.306550,5033.400406,-72012.976812
3721.715265,-5921.647536,9326.594869,-72472.634111
3721.717840,-6513.812290,-2960.823768,-71093.662214
3721.720415,-5921.647536,-1480.411884,-74158.044206
3721.722990,-14656.077652,9770.718434,-68182.499322
3721.725566,14063.912898,-3404.947333,-85955.914876
3721.728141,-5181.441594,14211.954086,-77375.645298
3721.730716,-13767.830521,22354.219448,-65577.774629
3721.733291,-3108.864956,-4885.359217,-79673.931792
3721.735866,-7698.141797,8734.430116,-70327.566716
3721.738441,-3701.029710,5329.482782,-69867.909418
3721.741016,-3997.112087,-3849.070898,-80133.589091
3721.743591,-7550.100608,11103.089130,-73698.386908
3721.746166,-16432.571912,12139.377449,-75843.454302
3721.748741,-6661.853478,5625.565159,-79367.493593
3721.751316,2072.576638,-3701.029710,-77375.645298
3721.753891,-5181.441594,6069.688724,-73545.167808
3721.756466,-444.123565,7105.977043,-77069.207099
3721.759041,-12731.542202,5921.647536,-77528.864398
3721.761616,-9622.677246,13767.830521,-72012.976812
3721.764191,-6957.935855,15248.242405,-72472.634111
3721.766766,-4441.235652,11991.336260,-74311.263306
3721.769341,-1628.453072,3997.112087,-73391.948708
3721.771916,-8734.430116,3997.112087,-71553.319513
3721.774491,-14063.912898,1332.370696,-77528.864398
3721.777066,15248.242405,1628.453072,-76762.768900
3721.779641,-16284.530724,21317.931130,-63279.488135
3721.782216,13915.871710,-9178.553681,-79980.369991
3721.784791,740.205942,8142.265362,-70634.004916
3721.787366,-19097.313304,3997.112087,-66803.527426
3721.789941,22058.137072,-21910.095883,-90399.268764
3721.792516,-9178.553681,12287.418637,-66190.651027
3721.795091,-148.041188,4145.153275,-73851.606007
3721.797666,8586.388927,-2516.700203,-79061.055394
3721.800241,-11251.130318,13175.665768,-68795.375720
3721.802816,-3552.988522,6069.688724,-70327.566716
3721.805391,3404.947333,-4293.194464,-73698.386908
3721.807968,-3108.864956,296.082377,-76762.768900
3721.810544,148.041188,6069.688724,-76303.111601
3721.813121,-4589.276840,6957.935855,-71553.319513
3721.815697,3108.864956,592.164754,-74004.825107
3721.818274,14952.160028,-3701.029710,-72166.195912
3721.820850,-8142.265362,2368.659014,-70174.347617
3721.823427,5625.565159,-7994.224174,-77069.207099
3721.826004,-5477.523971,-592.164754,-72012.976812
3721.828580,-2516.700203,10658.965565,-70174.347617
3721.831157,17172.777854,3404.947333,-74617.701505
3721.833733,-9918.759623,10807.006753,-70634.004916
3721.836310,-5181.441594,-3108.864956,-77069.207099
3721.838886,-4589.276840,-2664.741391,-78294.959896
3721.841463,-23242.466579,18209.066173,-69101.813920
3721.844039,7994.224174,3701.029710,-80593.246390
3721.846616,-8438.347739,15544.324782,-73545.167808
3721.849192,-14656.077652,21317.931130,-64198.802732
3721.851769,-1924.535449,-3701.029710,-78754.617194
3721.854345,-11991.336260,7846.182985,-70940.443115
3721.856922,-4441.235652,11251.130318,-67569.622924
3721.859498,-3108.864956,-3997.112087,-79980.369991
3721.862075,-5033.400406,7846.182985,-76456.330700
3721.864651,-7550.100608,15396.283594,-70480.785816
3721.867228,-5329.482782,4885.359217,-77222.426198
3721.869804,6069.688724,-444.123565,-77835.302597
3721.872381,-4737.318029,5477.523971,-73238.729609
3721.874958,-10214.842000,11695.253884,-71093.662214
3721.877534,-8882.471304,5921.647536,-74924.139704
3721.880111,-12435.459826,10066.800811,-74924.139704
3721.882687,-10214.842000,19689.478057,-73545.167808
3721.885264,3404.947333,5477.523971,-78448.178995
3721.887840,-4885.359217,5773.606348,-75077.358804
3721.890417,-6661.853478,3997.112087,-72779.072310
3721.892993,-17912.983796,4737.318029,-76762.768900
3721.895570,5033.400406,-3701.029710,-79214.274493
3721.898146,2368.659014,12435.459826,-71246.881314
3721.900723,-6957.935855,4589.276840,-74617.701505
3721.903299,18505.148550,-5921.647536,-77988.521696
3721.905876,-22058.137072,7994.224174,-58836.134246
3721.908452,12287.418637,-13915.871710,-80440.027290
3721.910992,17468.860231,-8586.388927,-81972.218286
3721.913531,-13323.706956,15100.201217,-70174.347617
3721.916070,-1332.370696,3701.029710,-74770.920605
3721.918610,4293.194464,-3997.112087,-79061.055394
3721.921149,-3404.947333,7846.182985,-67416.403824
3721.923689,6661.853478,-2072.576638,-71706.538613
3721.926228,-6513.812290,3701.029710,-74311.263306
3721.928767,1184.329507,7846.182985,-74311.263306
3721.931307,-5329.482782,3997.112087,-74464.482406
3721.933846,1924.535449,-444.123565,-74464.482406
3721.936385,13027.624579,-2812.782580,-73238.729609
3721.938925,-6513.812290,888.247130,-71246.881314
3721.941464,4737.318029,-4441.235652,-75690.235202
3721.944003,-9030.512492,-296.082377,-70940.443115
3721.946543,4441.235652,5181.441594,-75230.577904
3721.949082,6365.771101,888.247130,-79520.712692
3721.951622,4145.153275,-1036.288319,-76456.330700
3721.954161,-21910.095883,14359.995275,-67416.403824
3721.956700,4885.359217,-12731.542202,-82891.532884
3721.959240,-7550.100608,17764.942608,-70480.785816
3721.961779,-16136.489536,21762.054695,-68182.499322
3721.964318,6809.894666,-2960.823768,-88100.982270
3721.966858,-19837.519246,20725.766376,-64505.240932
3721.969397,-8438.347739,3404.947333,-74770.920605
3721.971936,-2960.823768,-1184.329507,-81052.903688
3721.974476,-1924.535449,9622.677246,-70634.004916
3721.977015,-2960.823768,4293.194464,-75843.454302
3721.979555,-7105.977043,7105.977043,-79520.712692
3721.982094,-11251.130318,14656.077652,-68795.375720
3721.984633,-4885.359217,8142.265362,-69255.033019
3721.987173,148.041188,3404.947333,-76456.330700
3721.989712,-2664.741391,6809.894666,-76303.111601
3721.992251,-22354.219448,20133.601622,-68029.280222
3721.994791,-6365.771101,4885.359217,-80286.808190
3721.997330,-11695.253884,15544.324782,-74770.920605
3721.999869,-1480.411884,16580.613101,-74770.920605
3722.002409,-592.164754,5181.441594,-74924.139704
3722.004948,-12879.583391,6069.688724,-71706.538613
3722.007488,-10214.842000,2812.782580,-68948.594820
3722.010027,1332.370696,1924.535449,-74004.825107
3722.012575,-2368.659014,14952.160028,-65884.212828
3722.015123,19245.354492,-8734.430116,-81512.560987
3722.017671,-15100.201217,14063.912898,-79214.274493
3722.020219,-11843.295072,4885.359217,-66650.308326
3722.022767,6661.853478,-14952.160028,-82431.875585
3722.025315,592.164754,3552.988522,-71400.100414
3722.027862,2368.659014,8438.347739,-69714.690318
3722.030410,1628.453072,1924.535449,-77528.864398
3722.032958,-6809.894666,9178.553681,-70634.004916
3722.035506,-5921.647536,1184.329507,-70634.004916
3722.038054,9326.594869,-4589.276840,-76915.987999
3722.040602,3108.864956,2516.700203,-72319.415011
3722.043150,-5625.565159,9770.718434,-74770.920605
3722.045698,-296.082377,3701.029710,-77835.302597
3722.048246,-888.247130,-148.041188,-75383.797003
3722.050794,10214.842000,-1924.535449,-74464.482406
3722.053342,3997.112087,-6217.729913,-77069.207099
3722.055890,-8734.430116,-4145.153275,-71553.319513
3722.058438,-7254.018232,2960.823768,-73085.510509
3722.060986,6957.935855,1036.288319,-77528.864398
3722.063534,-2368.659014,2220.617826,-75230.577904
3722.066081,15840.407159,296.082377,-75996.673402
3722.068629,-23094.425390,12139.377449,-68182.499322
3722.071177,2960.823768,-7846.182985,-81206.122788
3722.073725,-5329.482782,17172.777854,-68182.499322
3722.076273,-18209.066173,15248.242405,-72932.291410
3722.078821,15248.242405,1924.535449,-85343.038477
3722.081369,-25463.084405,20873.807564,-63432.707234
3722.083917,-10362.883188,-296.082377,-78141.740796
3722.086465,-888.247130,2368.659014,-76609.549800
3722.089013,-11399.171507,11251.130318,-70021.128517
3722.091561,6513.812290,2072.576638,-70634.004916
3722.094109,-10066.800811,6217.729913,-75230.577904
3722.096657,-11695.253884,10658.965565,-72012.976812
3722.099205,7994.224174,-1776.494261,-76915.987999
3722.101753,-3849.070898,6069.688724,-73698.386908
3722.104301,-5477.523971,11399.171507,-72625.853210
3722.106848,-13323.706956,8142.265362,-74004.825107
3722.109396,-12435.459826,10510.924376,-73698.386908
3722.111944,-10066.800811,18949.272115,-70021.128517
3722.114500,2368.659014,8882.471304,-77528.864398
3722.117055,296.082377,5773.606348,-77528.864398
3722.119610,-8142.265362,7846.182985,-70021.128517
3722.122166,-21614.013506,4589.276840,-72472.634111
3722.124721,10510.924376,-7105.977043,-80746.465489
3722.127276,-8142.265362,14804.118840,-75077.358804
3722.129831,-8438.347739,10214.842000,-70021.128517
3722.132387,18505.148550,-14656.077652,-84576.942979
3722.134942,-21021.848753,10510.924376,-62053.735338
3722.137497,7402.059420,-6957.935855,-75077.358804
3722.140053,9918.759623,-6365.771101,-76915.987999
3722.142608,-7105.977043,14952.160028,-67416.403824
3722.145163,4885.359217,-1184.329507,-77682.083497
3722.147719,-6957.935855,3997.112087,-75383.797003
3722.150274,-2368.659014,5477.523971,-70787.224015
3722.152829,2960.823768,-6069.688724,-77222.426198
3722.155385,-7994.224174,2960.823768,-74464.482406
3722.157940,1332.370696,6069.688724,-73851.606007
3722.160495,-6957.935855,4737.318029,-74004.825107
3722.163050,15396.283594,-4885.359217,-75077.358804
3722.165606,10955.047942,-6661.853478,-79214.274493
3722.168161,-3256.906145,-3256.906145,-78294.959896
3722.170716,148.041188,-3997.112087,-77222.426198
3722.173272,-6217.729913,4885.359217,-71859.757712
3722.175827,9030.512492,2664.741391,-74617.701505
3722.178382,5181.441594,9178.553681,-72779.072310
3722.180938,-8290.306550,296.082377,-72625.853210
3722.183493,-296.082377,1924.535449,-72779.072310
3722.186048,-29756.278868,12435.459826,-65884.212828
3722.188604,16284.530724,-5921.647536,-87794.544071
3722.191159,-13027.624579,28275.866984,-65884.212828
3722.193714,-10066.800811,16580.613101,-72012.976812
3722.196269,4885.359217,-5033.400406,-83351.190182
3722.198825,-5773.606348,7402.059420,-69255.033019
3722.201380,-12139.377449,13323.706956,-64352.021832
3722.203935,9030.512492,-6365.771101,-81206.122788
3722.206491,-12583.501014,11547.212695,-73545.167808
3722.209046,-11251.130318,16580.613101,-71400.100414
3722.211601,-4145.153275,-1332.370696,-78754.617194
3722.214157,-9770.718434,-888.247130,-76149.892501
3722.216717,4885.359217,7402.059420,-74158.044206
3722.219277,-17912.983796,9474.636058,-75537.016103
3722.221838,-15100.201217,9918.759623,-79367.493593
3722.224398,-9918.759623,14063.912898,-77222.426198
3722.226958,-5033.400406,13767.830521,-72472.634111
3722.229519,3701.029710,2072.576638,-74464.482406
3722.232079,-3997.112087,4589.276840,-70327.566716
3722.234639,-23390.507767,10658.965565,-70634.004916
3722.237200,148.041188,-4145.153275,-81972.218286
3722.239760,16136.489536,-3108.864956,-83657.628382
3722.242321,-13619.789333,16728.654289,-65884.212828
3722.244881,16728.654289,-18653.189738,-84423.723880
3722.247441,-13767.830521,3256.906145,-67416.403824
3722.250002,2960.823768,-1776.494261,-73238.729609
3722.252562,8882.471304,-7402.059420,-80286.808190
3722.255122,-3256.906145,10955.047942,-71706.538613
3722.257683,0.000000,3849.070898,-73238.729609
3722.260243,-2960.823768,-1036.288319,-78754.617194
3722.262803,-2812.782580,2072.576638,-73085.510509
3722.265364,3256.906145,-4145.153275,-77069.207099
3722.267924,-2516.700203,444.123565,-77835.302597
3722.270485,2220.617826,4293.194464,-72932.291410
3722.273045,-8142.265362,3552.988522,-72319.415011
3722.275605,8290.306550,-6365.771101,-76762.768900
3722.278166,8290.306550,-7994.224174,-79827.150892
3722.280726,-4293.194464,1776.494261,-70327.566716
3722.283286,-1036.288319,-4145.153275,-78448.178995
3722.285847,-2960.823768,4441.235652,-75690.235202
3722.288407,2220.617826,1480.411884,-72932.291410
3722.290967,12139.377449,-444.123565,-74770.920605
3722.293528,-21021.848753,13175.665768,-68488.937521
3722.296088,10066.800811,-6809.894666,-81052.903688
3722.298649,-17172.777854,17172.777854,-70327.566716
3722.301209,-10807.006753,11991.336260,-72932.291410
3722.303769,8734.430116,4441.235652,-80440.027290
3722.306330,-22502.260637,21465.972318,-65884.212828
3722.308890,1776.494261,-592.164754,-74311.263306
3722.311450,-3256.906145,-2072.576638,-79980.369991
3722.314011,-10658.965565,8290.306550,-73851.606007
3722.316571,1776.494261,5773.606348,-76303.111601
3722.319136,-6809.894666,7402.059420,-78294.959896
3722.321701,-14359.995275,13471.748144,-70940.443115
3722.324265,-4737.318029,-888.247130,-74924.139704
3722.326830,-3997.112087,2664.741391,-77222.426198
3722.329395,1628.453072,11695.253884,-71859.757712
3722.331960,-14211.954086,9622.677246,-72932.291410
3722.334525,-7254.018232,7550.100608,-78754.617194
3722.337089,-11843.295072,17320.819043,-75690.235202
3722.339654,-3849.070898,9030.512492,-77222.426198
3722.342219,7254.018232,-148.041188,-81359.341888
3722.344784,-14508.036463,4737.318029,-71553.319513
3722.347349,-2960.823768,9178.553681,-69561.471218
3722.349913,-7698.141797,9326.594869,-69255.033019
3722.352478,16876.695478,-8438.347739,-81512.560987
3722.355043,-5773.606348,14952.160028,-67722.842023
3722.357608,-7105.977043,-5773.606348,-77835.302597
3722.360173,7105.977043,-16136.489536,-85955.914876
3722.362737,-9770.718434,8882.471304,-63126.269035
3722.365302,6069.688724,-3404.947333,-77222.426198
3722.367867,13323.706956,1776.494261,-76915.987999
3722.370432,-7846.182985,10955.047942,-71706.538613
3722.372997,-2072.576638,444.123565,-79214.274493
3722.375561,4737.318029,-3256.906145,-75996.673402
3722.378126,-1036.288319,1924.535449,-71093.662214
3722.380691,3849.070898,8586.388927,-70634.004916
3722.383256,-148.041188,0.000000,-74924.139704
3722.385821,1924.535449,-3701.029710,-74464.482406
3722.388385,9474.636058,-3404.947333,-73085.510509
3722.390950,2072.576638,-5033.400406,-77069.207099
3722.393515,-2664.741391,-4589.276840,-76303.111601
3722.396080,-1036.288319,1628.453072,-74924.139704
3722.398645,3849.070898,1924.535449,-76609.549800
3722.401209,5033.400406,10214.842000,-74464.482406
3722.403774,-11695.253884,2220.617826,-73545.167808
3722.406339,1480.411884,-296.082377,-78754.617194
3722.408904,-27831.743419,15396.283594,-64658.460031
3722.411468,8142.265362,-5921.647536,-84883.381178
3722.414033,-7698.141797,21910.095883,-68335.718422
3722.416598,-12879.583391,16580.613101,-70021.128517
3722.419163,740.205942,-888.247130,-82125.437386
3722.421694,-8586.388927,8290.306550,-72472.634111
3722.424225,-12879.583391,10955.047942,-67263.184724
3722.426757,5921.647536,-2664.741391,-78601.398095
3722.429289,-3552.988522,11695.253884,-71093.662214
3722.431821,-8882.471304,11843.295072,-74004.825107
3722.434353,-2664.741391,5329.482782,-73238.729609
3722.436884,-8882.471304,2812.782580,-74004.825107
3722.439416,-740.205942,5921.647536,-73851.606007
3722.441948,-4145.153275,9030.512492,-75077.358804
3722.444480,-19245.354492,17764.942608,-71553.319513
3722.447012,-5477.523971,17468.860231,-72625.853210
3722.449544,-6069.688724,12583.501014,-72779.072310
3722.452075,-1480.411884,5033.400406,-73391.948708
3722.454607,-7846.182985,-2368.659014,-76149.892501
3722.457139,-8142.265362,6069.688724,-72932.291410
3722.459671,-5033.400406,8882.471304,-70634.004916
3722.462203,15840.407159,-9326.594869,-81206.122788
3722.464734,-14211.954086,19097.313304,-65271.336430
3722.467266,6069.688724,-9178.553681,-77222.426198
3722.469798,-592.164754,-13619.789333,-81972.218286
3722.472330,-6513.812290,9770.718434,-64964.898230
3722.474862,8438.347739,-6365.771101,-80286.808190
3722.477394,4885.359217,3849.070898,-77988.521696
3722.479925,-4293.194464,8290.306550,-72932.291410
3722.482457,-4145.153275,-592.164754,-77375.645298
3722.484989,2072.576638,-3701.029710,-74924.139704
3722.487521,148.041188,4145.153275,-73391.948708
3722.490053,-4737.318029,13767.830521,-69714.690318
3722.492584,2220.617826,-592.164754,-77682.083497
3722.495116,2960.823768,-5477.523971,-77375.645298
3722.497648,148.041188,-148.041188,-71706.538613
3722.500180,7105.977043,-9918.759623,-78601.398095
3722.502712,-7254.018232,-3997.112087,-75996.673402
3722.505244,2664.741391,3849.070898,-74617.701505
3722.507775,4145.153275,-1184.329507,-77528.864398
3722.510307,5773.606348,8438.347739,-73085.510509
3722.512839,-17468.860231,9474.636058,-66803.527426
3722.515371,7254.018232,-7402.059420,-83044.751983
3722.517903,-22206.178260,20281.642811,-66803.527426
3722.520434,-3701.029710,1480.411884,-82738.313784
3722.522976,1184.329507,12879.583391,-86722.010374
3722.525518,-14359.995275,20429.683999,-65271.336430
3722.528059,-10658.965565,2516.700203,-75230.577904
3722.530601,-3849.070898,4441.235652,-77069.207099
3722.533142,-11251.130318,10362.883188,-68795.375720
3722.535684,-740.205942,592.164754,-79980.369991
3722.538226,148.041188,8586.388927,-77222.426198
3722.540767,-13619.789333,11843.295072,-71246.881314
3722.543309,-3997.112087,3997.112087,-70787.224015
3722.545850,-1776.494261,1036.288319,-75843.454302
3722.548392,-7698.141797,10510.924376,-74311.263306
3722.550934,-3997.112087,9326.594869,-75843.454302
3722.553475,-16876.695478,14211.954086,-77835.302597
3722.556017,-3108.864956,13323.706956,-74924.139704
3722.558558,-3256.906145,7402.059420,-74311.263306
3722.561100,-5329.482782,5477.523971,-72625.853210
3722.563642,-13175.665768,9770.718434,-69255.033019
3722.566183,-2368.659014,-5773.606348,-78601.398095
3722.568725,4441.235652,7994.224174,-76303.111601
3722.571267,-2516.700203,1480.411884,-74617.701505
3722.573808,15100.201217,-4885.359217,-79980.369991
3722.576350,-7846.182985,8142.265362,-63739.145434
3722.578891,2072.576638,-12139.377449,-79980.369991
3722.581433,6957.935855,0.000000,-76303.111601
3722.583975,-1184.329507,7402.059420,-67569.622924
3722.586516,2960.823768,1184.329507,-77528.864398
3722.589058,-4145.153275,9178.553681,-70634.004916
3722.591599,-9622.677246,1776.494261,-71859.757712
3722.594141,2368.659014,-3404.947333,-78448.178995
3722.596683,0.000000,2368.659014,-76149.892501
3722.599224,-3404.947333,4885.359217,-74617.701505
3722.601766,3256.906145,1776.494261,-71859.757712
3722.604307,2960.823768,-5329.482782,-72319.415011
3722.606849,296.082377,-888.247130,-70174.347617
3722.609391,5329.482782,-3552.988522,-74004.825107
3722.611932,-5625.565159,-148.041188,-76456.330700
3722.614474,6217.729913,1924.535449,-74158.044206
3722.617015,-6069.688724,6365.771101,-74617.701505
3722.619557,0.000000,-2368.659014,-80133.589091
3722.622099,-2664.741391,7402.059420,-74617.701505
3722.624649,-26647.413912,10066.800811,-70787.224015
3722.627199,13471.748144,-3108.864956,-84883.381178
3722.629749,-20429.683999,28719.990550,-70634.004916
3722.632299,-18061.024985,18209.066173,-64352.021832
3722.634849,12583.501014,-7402.059420,-82125.437386
3722.637398,-1924.535449,3108.864956,-76915.987999
3722.639948,-18505.148550,17172.777854,-64658.460031
3722.642498,8882.471304,-1036.288319,-80133.589091
3722.645048,-3701.029710,9474.636058,-78141.740796
3722.647598,-4589.276840,7994.224174,-74770.920605
3722.650148,-4737.318029,3256.906145,-72166.195912
3722.652698,-12435.459826,5477.523971,-74004.825107
3722.655248,-2368.659014,8142.265362,-73698.386908
3722.657798,-15100.201217,10510.924376,-73851.606007
3722.660348,-12287.418637,17616.901420,-73238.729609
3722.662898,-3404.947333,11251.130318,-75077.358804
3722.665448,-4737.318029,5625.565159,-78448.178995
3722.667998,-1924.535449,3108.864956,-74158.044206
3722.670548,-8882.471304,9178.553681,-68488.937521
3722.673098,-6661.853478,-4589.276840,-78294.959896
3722.675648,15692.365970,-1776.494261,-81665.780087
3722.678198,-12583.501014,13027.624579,-67722.842023
3722.680748,18061.024985,-15396.283594,-84270.504780
3722.683298,-9326.594869,2072.576638,-66803.527426
3722.685848,-8882.471304,0.000000,-74770.920605
3722.688398,15692.365970,-8290.306550,-83044.751983
3722.690948,-5329.482782,8586.388927,-69714.690318
3722.693498,-740.205942,3997.112087,-71553.319513
3722.696048,2220.617826,-1036.288319,-76915.987999
3722.698598,-6809.894666,6809.894666,-72012.976812
3722.701148,7105.977043,-1332.370696,-77069.207099
3722.703698,-3701.029710,1332.370696,-78141.740796
3722.706248,-444.123565,6217.729913,-75996.673402
3722.708798,444.123565,-2812.782580,-72779.072310
3722.711348,1924.535449,-8586.388927,-78448.178995
3722.713898,4145.153275,-4737.318029,-77375.645298
3722.716448,-2516.700203,-1480.411884,-75537.016103
3722.718998,1776.494261,-1036.288319,-79673.931792
3722.721548,1036.288319,-3997.112087,-76609.549800
3722.724098,5033.400406,2960.823768,-74311.263306
3722.726654,-13619.789333,15692.365970,-66803.527426
3722.729211,7550.100608,-5181.441594,-81359.341888
3722.731768,-16136.489536,20577.725188,-68182.499322
3722.734325,-13471.748144,10955.047942,-72779.072310
3722.736881,888.247130,3552.988522,-81818.999186
3722.739438,-11547.212695,17912.983796,-65884.212828
3722.741995,-14508.036463,5921.647536,-70940.443115
3722.744552,-7402.059420,888.247130,-80286.808190
3722.747108,-7846.182985,11695.253884,-69867.909418
3722.749665,-1924.535449,6217.729913,-73391.948708
3722.752222,-5329.482782,6957.935855,-77375.645298
3722.754778,-1628.453072,5921.647536,-74311.263306
3722.757335,-9326.594869,4589.276840,-74158.044206
3722.759892,-3256.906145,6069.688724,-76303.111601
3722.762449,-18505.148550,11103.089130,-72625.853210
3722.765005,-11843.295072,16284.530724,-72472.634111
3722.767562,-1924.535449,13619.789333,-74924.139704
3722.770119,-10066.800811,15100.201217,-72932.291410
3722.772676,-296.082377,8142.265362,-75230.577904
3722.775232,-8290.306550,592.164754,-76149.892501
3722.777789,-2960.823768,3404.947333,-74311.263306
3722.780346,-9178.553681,14211.954086,-67109.965625
3722.782902,14063.912898,-11991.336260,-82278.656485
3722.785459,-4737.318029,13175.665768,-69255.033019
3722.788016,-5921.647536,-3701.029710,-72932.291410
3722.790573,8142.265362,-17616.901420,-89173.515967
3722.793129,-8438.347739,10362.883188,-67263.184724
3722.795686,5033.400406,-888.247130,-75996.673402
3722.798243,5773.606348,-592.164754,-77375.645298
3722.800800,-5477.523971,8438.347739,-70634.004916
3722.803356,1036.288319,444.123565,-78294.959896
3722.805913,3997.112087,2960.823768,-75230.577904
3722.808470,-4589.276840,6217.729913,-68948.594820
3722.811027,-2220.617826,4293.194464,-72166.195912
3722.813583,8142.265362,-3108.864956,-76915.987999
3722.816140,-4293.194464,-2072.576638,-72166.195912
3722.818697,4885.359217,-2664.741391,-70327.566716
3722.821253,2072.576638,-5625.565159,-75077.358804
3722.823810,-3256.906145,2368.659014,-74158.044206
3722.826367,7550.100608,-1480.411884,-69561.471218
3722.828928,296.082377,6365.771101,-73851.606007
3722.831490,-4737.318029,4145.153275,-76149.892501
3722.834051,1184.329507,2664.741391,-79214.274493
3722.836612,-30496.484810,18209.066173,-69714.690318
3722.839174,11103.089130,-2516.700203,-84730.162079
3722.841735,-14211.954086,19393.395680,-70940.443115
3722.844296,-6069.688724,14359.995275,-67876.061123
3722.846858,8438.347739,-5181.441594,-81512.560987
3722.849419,-12583.501014,9918.759623,-74004.825107
3722.851980,-14063.912898,17912.983796,-65118.117330
3722.854542,2516.700203,888.247130,-77682.083497
3722.857103,-9474.636058,9918.759623,-73085.510509
3722.859664,-2516.700203,6809.894666,-72932.291410
3722.862226,-12879.583391,3701.029710,-75996.673402
3722.864787,-3108.864956,4589.276840,-77682.083497
3722.867348,-12435.459826,10658.965565,-73545.167808
3722.869910,-12731.542202,13027.624579,-75077.358804
3722.872471,-3552.988522,13323.706956,-75690.235202
3722.875032,-9326.594869,16580.613101,-72319.415011
3722.877594,-1036.288319,9030.512492,-77528.864398
3722.880155,-6069.688724,3404.947333,-76456.330700
3722.882716,-9918.759623,11399.171507,-68335.718422
3722.885278,-3256.906145,10214.842000,-66956.746525
3722.887839,15840.407159,-11843.295072,-82431.875585
3722.890400,-10955.047942,15692.365970,-67569.622924
3722.892962,2072.576638,-7550.100608,-76303.111601
3722.895523,3552.988522,-16876.695478,-87488.105872
3722.898085,-5921.647536,12583.501014,-65884.212828
3722.900646,6957.935855,-5477.523971,-78907.836294
3722.903207,5773.606348,740.205942,-76303.111601
3722.905769,-4441.235652,7846.182985,-72012.976812
3722.908330,-4145.153275,1776.494261,-78141.740796
3722.910891,0.000000,-1332.370696,-76609.549800
3722.913453,-3849.070898,1628.453072,-73238.729609
3722.916014,-1924.535449,6661.853478,-74924.139704
3722.918575,2960.823768,-740.205942,-77222.426198
3722.921137,5625.565159,-2812.782580,-74617.701505
3722.923698,3108.864956,-5329.482782,-74770.920605
3722.926259,-2072.576638,-2516.700203,-73085.510509
3722.928821,-1184.329507,296.082377,-75230.577904
3722.931386,7254.018232,-7402.059420,-75077.358804
3722.933951,-1036.288319,9474.636058,-69101.813920
3722.936516,-6661.853478,9918.759623,-72779.072310
3722.939081,8438.347739,-2072.576638,-82585.094684
3722.941647,-28275.866984,20281.642811,-68029.280222
3722.944212,740.205942,-444.123565,-79673.931792
3722.946777,-6661.853478,13767.830521,-73238.729609
3722.949342,-8290.306550,17468.860231,-66343.870127
3722.951908,8290.306550,-6513.812290,-81818.999186
3722.954473,-22798.343014,14508.036463,-68795.375720
3722.957038,-11103.089130,14211.954086,-69867.909418
3722.959603,1924.535449,-444.123565,-79673.931792
3722.962168,-2812.782580,4737.318029,-78907.836294
3722.964734,-592.164754,3997.112087,-75537.016103
3722.967299,-11547.212695,7550.100608,-74158.044206
3722.969864,-4737.318029,4885.359217,-76915.987999
3722.972429,-14359.995275,9178.553681,-75383.797003
3722.974994,-15396.283594,21021.848753,-69561.471218
3722.977560,740.205942,13027.624579,-71706.538613
3722.980125,-7550.100608,11695.253884,-71859.757712
3722.982690,-6513.812290,14656.077652,-71093.662214
3722.985255,-14952.160028,592.164754,-75843.454302
3722.987820,6365.771101,-296.082377,-75383.797003
3722.990386,-11843.295072,12139.377449,-62973.049936
3722.992951,-7698.141797,444.123565,-72779.072310
3722.995516,20429.683999,-2812.782580,-78448.178995
3722.998081,-12583.501014,10066.800811,-62206.954438
3723.000647,740.205942,-13915.871710,-82585.094684
3723.003212,5773.606348,3701.029710,-73085.510509
3723.005777,-6069.688724,8290.306550,-68488.937521
3723.008342,7698.141797,-4885.359217,-82125.437386
3723.010907,-7550.100608,7846.182985,-71093.662214
3723.013473,-4145.153275,3997.112087,-72472.634111
3723.016038,9178.553681,-1036.288319,-77222.426198
3723.018603,-6069.688724,4737.318029,-72166.195912
3723.021168,-4737.318029,4737.318029,-72472.634111
3723.023733,10214.842000,-2664.741391,-74464.482406
3723.026299,-2812.782580,-2516.700203,-73545.167808
3723.028864,10066.800811,-4737.318029,-75690.235202
3723.031429,-296.082377,-740.205942,-76915.987999
3723.033998,296.082377,-592.164754,-74770.920605
3723.036566,-3552.988522,2072.576638,-72779.072310
3723.039135,888.247130,-4441.235652,-79520.712692
3723.041703,-444.123565,14063.912898,-71400.100414
3723.044271,-15248.242405,6069.688724,-70787.224015
3723.046840,-296.082377,2220.617826,-81512.560987
3723.049408,-18949.272115,27535.661042,-63126.269035
3723.051977,592.164754,888.247130,-80133.589091
3723.054545,6365.771101,-7698.141797,-83810.847481
3723.057114,-19393.395680,18801.230927,-63739.145434
3723.059682,-9474.636058,5181.441594,-77835.302597
3723.062251,-148.041188,2960.823768,-78448.178995
3723.064819,-5181.441594,12435.459826,-65118.117330
3723.067388,1184.329507,9326.594869,-69714.690318
3723.069956,-6365.771101,6069.688724,-73545.167808
3723.072525,-9030.512492,4145.153275,-75537.016103
3723.075093,-14063.912898,11399.171507,-75843.454302
3723.077662,-11251.130318,20133.601622,-74004.825107
3723.080230,-5477.523971,16136.489536,-72779.072310
3723.082799,-888.247130,10362.883188,-70021.128517
3723.085367,-16580.613101,14952.160028,-64964.898230
3723.087936,-8586.388927,1480.411884,-74004.825107
3723.090504,7550.100608,-1184.329507,-72625.853210
3723.093073,-15840.407159,12731.542202,-65271.336430
3723.095641,18949.272115,-9622.677246,-82891.532884
3723.098210,-1036.288319,10214.842000,-72779.072310
3723.100778,-12731.542202,740.205942,-72319.415011
3723.103347,12731.542202,-15100.201217,-79520.712692
3723.105915,-1036.288319,3849.070898,-72319.415011
3723.108484,1184.329507,10362.883188,-68795.375720
3723.111052,6069.688724,-4441.235652,-81052.903688
3723.113621,-10658.965565,7994.224174,-70021.128517
3723.116189,296.082377,1480.411884,-70174.347617
3723.118758,148.041188,-444.123565,-75996.673402
3723.121326,1924.535449,5181.441594,-75996.673402
3723.123895,148.041188,6809.894666,-72012.976812
3723.126463,6513.812290,-3404.947333,-74617.701505
3723.129032,11695.253884,-8734.430116,-72625.853210
3723.131600,-7550.100608,-2220.617826,-68335.718422
3723.134168,3552.988522,-2664.741391,-75843.454302
3723.136739,0.000000,740.205942,-73238.729609
3723.139309,-8290.306550,10658.965565,-69714.690318
3723.141880,1628.453072,3552.988522,-75077.358804
3723.144450,1480.411884,1036.288319,-78448.178995
3723.147021,-29608.237680,19837.519246,-65577.774629
3723.149591,10658.965565,-6069.688724,-83044.751983
3723.152161,-17172.777854,22058.137072,-69101.813920
3723.154732,-3404.947333,17172.777854,-68182.499322
3723.157302,8734.430116,-7994.224174,-85496.257577
3723.159873,-24130.713709,18801.230927,-65271.336430
3723.162443,-5477.523971,2812.782580,-77528.864398
3723.165013,-7254.018232,4441.235652,-78907.836294
3723.167584,-2220.617826,11547.212695,-69714.690318
3723.170154,-1776.494261,4589.276840,-73545.167808
3723.172725,-5921.647536,-296.082377,-78907.836294
3723.175295,-1776.494261,2960.823768,-74311.263306
3723.177866,-20429.683999,15100.201217,-71706.538613
3723.180436,-8142.265362,18209.066173,-75383.797003
3723.183006,3256.906145,10362.883188,-76762.768900
3723.185577,-13915.871710,18061.024985,-68335.718422
3723.188147,-1628.453072,9326.594869,-72012.976812
3723.190718,-21317.931130,7254.018232,-69408.252119
3723.193288,7254.018232,-7254.018232,-74464.482406
3723.195858,7550.100608,5773.606348,-70634.004916
3723.198429,-4737.318029,3701.029710,-74924.139704
3723.200999,21614.013506,-3997.112087,-80593.246390
3723.203570,-18653.189738,7254.018232,-64964.898230
3723.206140,5477.523971,-13915.871710,-79673.931792
3723.208711,2664.741391,1184.329507,-73391.948708
3723.211281,-2220.617826,8290.306550,-71246.881314
3723.213851,2960.823768,2072.576638,-75996.673402
3723.216422,-296.082377,-444.123565,-77222.426198
3723.218992,-1036.288319,2516.700203,-73238.729609
3723.221563,7402.059420,2960.823768,-73698.386908
3723.224133,-6217.729913,2368.659014,-76149.892501
3723.226703,740.205942,4589.276840,-76456.330700
3723.229274,5477.523971,-2664.741391,-77528.864398
3723.231844,4293.194464,-10066.800811,-81972.218286
3723.234415,444.123565,-3701.029710,-73545.167808
3723.236985,-1628.453072,148.041188,-75843.454302
3723.239558,10214.842000,-7698.141797,-78754.617194
3723.242130,1332.370696,7994.224174,-67876.061123
3723.244702,-13915.871710,12287.418637,-68948.594820
3723.247275,14359.995275,-2812.782580,-80593.246390
3723.249847,-12139.377449,16728.654289,-69408.252119
3723.252420,-25315.043216,19541.436869,-65884.212828
3723.254992,14508.036463,-3108.864956,-83197.971083
3723.257565,-18357.107362,20429.683999,-64811.679131
3723.260137,2960.823768,0.000000,-78448.178995
3723.262710,-5773.606348,4441.235652,-76456.330700
3723.265282,-20281.642811,18949.272115,-64045.583633
3723.267854,2072.576638,1184.329507,-76609.549800
3723.270427,-4441.235652,4293.194464,-80133.589091
3723.272999,1036.288319,9030.512492,-72166.195912
3723.275572,-10510.924376,8142.265362,-70480.785816
3723.278144,-11547.212695,4145.153275,-75690.235202
3723.280717,-10510.924376,14359.995275,-69561.471218
3723.283289,-4737.318029,15248.242405,-70787.224015
3723.285862,2072.576638,8142.265362,-79673.931792
3723.288434,-10510.924376,10807.006753,-75230.577904
3723.291007,-14508.036463,7402.059420,-76456.330700
3723.293579,7254.018232,-2072.576638,-79980.369991
3723.296151,-13915.871710,7846.182985,-67416.403824
3723.298724,22502.260637,-10807.006753,-79980.369991
3723.301296,-7550.100608,12435.459826,-70634.004916
3723.303869,-6957.935855,-3552.988522,-76303.111601
3723.306441,11991.336260,-16284.530724,-86415.572174
3723.309014,-15248.242405,10955.047942,-64964.898230
3723.311586,14804.118840,-3997.112087,-80286.808190
3723.314159,5921.647536,-740.205942,-76149.892501
3723.316731,-9474.636058,7254.018232,-72625.853210
3723.319303,7698.141797,2072.576638,-76915.987999
3723.321876,5477.523971,-2220.617826,-77528.864398
3723.324448,-5477.523971,7254.018232,-73391.948708
3723.327021,2960.823768,3997.112087,-72012.976812
3723.329593,-1184.329507,-2220.617826,-72472.634111
3723.332166,11251.130318,-10807.006753,-78294.959896
3723.334738,-4589.276840,-6957.935855,-76609.549800
3723.337311,-148.041188,-1332.370696,-78754.617194
3723.339883,11103.089130,-5773.606348,-77528.864398
3723.342457,-6365.771101,8586.388927,-71246.881314
3723.345030,-4589.276840,1332.370696,-76149.892501
3723.347603,7105.977043,1776.494261,-79673.931792
3723.350176,-30052.361245,21614.013506,-67109.965625
3723.352749,6809.894666,-6809.894666,-86415.572174
3723.355323,-15248.242405,20577.725188,-68029.280222
3723.357896,-15988.448347,21910.095883,-62360.173537
3723.360469,9918.759623,-8586.388927,-78294.959896
3723.363042,-13471.748144,10658.965565,-72012.976812
3723.365615,-15988.448347,19541.436869,-64352.021832
3723.368189,-3552.988522,592.164754,-77682.083497
3723.370762,-2812.782580,5921.647536,-73085.510509
3723.373335,1924.535449,6365.771101,-70021.128517
3723.375908,-11843.295072,8734.430116,-72779.072310
3723.378481,-4737.318029,3552.988522,-79214.274493
3723.381055,-15988.448347,18949.272115,-70327.566716
3723.383628,-6661.853478,18505.148550,-68335.718422
3723.386201,4737.318029,6069.688724,-74158.044206
3723.388774,-12287.418637,17320.819043,-67876.061123
3723.391347,-6957.935855,4441.235652,-75383.797003
3723.393921,-7402.059420,-7846.182985,-82738.313784
3723.396494,-12287.418637,11547.212695,-66803.527426
3723.399067,20133.601622,-9474.636058,-78601.398095
3723.401640,-3552.988522,9178.553681,-71400.100414
3723.404213,-8438.347739,296.082377,-69867.909418
3723.406786,6365.771101,-18505.148550,-85036.600278
3723.409360,-12879.583391,10658.965565,-68029.280222
3723.411933,14656.077652,444.123565,-78294.959896
3723.414506,2812.782580,-2220.617826,-78754.617194
3723.417079,-6809.894666,5773.606348,-73545.167808
3723.419652,3108.864956,3256.906145,-72472.634111
3723.422226,-4737.318029,-1924.535449,-77222.426198
3723.424799,5181.441594,4885.359217,-73698.386908
3723.427372,-4145.153275,5773.606348,-71859.757712
3723.429945,10807.006753,444.123565,-71859.757712
3723.432518,12287.418637,-11399.171507,-79214.274493
3723.435092,-9178.553681,-2220.617826,-72472.634111
3723.437665,2812.782580,-2220.617826,-77222.426198
3723.440238,5181.441594,-6661.853478,-77682.083497
3723.442811,1184.329507,5477.523971,-72166.195912
3723.445385,-15840.407159,16136.489536,-65730.993728
3723.447959,6957.935855,-4737.318029,-82278.656485
3723.450534,-16136.489536,21317.931130,-65577.774629
3723.453108,-14952.160028,7846.182985,-77222.426198
3723.455682,2368.659014,5329.482782,-81512.560987
3723.458256,-11251.130318,20873.807564,-63126.269035
3723.460830,2368.659014,-7846.182985,-80593.246390
3723.463404,-7105.977043,9474.636058,-73545.167808
3723.465978,-17912.983796,15100.201217,-64658.460031
3723.468552,-1924.535449,8734.430116,-75690.235202
3723.471127,2220.617826,-888.247130,-81818.999186
3723.473701,-1628.453072,-1332.370696,-79673.931792
3723.476275,-13027.624579,9030.512492,-73391.948708
3723.478849,-23834.631332,12583.501014,-71859.757712
3723.481423,-4885.359217,9622.677246,-80133.589091
3723.483997,-2368.659014,16136.489536,-71553.319513
3723.486571,-4885.359217,10510.924376,-75690.235202
3723.489145,-9178.553681,9178.553681,-75230.577904
3723.491719,-17468.860231,12879.583391,-70787.224015
3723.494294,-1036.288319,-10807.006753,-77375.645298
3723.496868,15692.365970,-6809.894666,-77988.521696
3723.499442,-8734.430116,10510.924376,-65118.117330
3723.502016,16580.613101,-13915.871710,-87028.448573
3723.504590,-9770.718434,9326.594869,-64658.460031
3723.507164,-11843.295072,8734.430116,-66497.089226
3723.509738,12583.501014,-6217.729913,-80746.465489
3723.512312,9326.594869,2516.700203,-74617.701505
3723.514886,-8586.388927,7402.059420,-70480.785816
3723.517461,148.041188,-3552.988522,-82125.437386
3723.520035,-1924.535449,-296.082377,-77069.207099
3723.522609,-148.041188,6661.853478,-72319.415011
3723.525183,1332.370696,3256.906145,-75230.577904
3723.527757,7402.059420,-2072.576638,-78754.617194
3723.530331,3256.906145,-2664.741391,-71093.662214
3723.532905,1628.453072,-6661.853478,-71706.538613
3723.535479,-5033.400406,-2960.823768,-72779.072310
3723.538053,14211.954086,-5329.482782,-74004.825107
3723.540628,-10066.800811,9918.759623,-70174.347617
3723.543202,-14063.912898,8586.388927,-72932.291410
3723.545776,13323.706956,-4885.359217,-84117.285680
3723.548350,-33753.390955,26499.372724,-63585.926334
3723.550924,-1184.329507,-1628.453072,-84576.942979
3723.553498,-148.041188,11695.253884,-74924.139704
3723.556072,-15988.448347,20725.766376,-62360.173537
3723.558646,15396.283594,-11251.130318,-83044.751983
3723.561220,-21614.013506,13323.706956,-69561.471218
3723.563795,-14063.912898,16284.530724,-69561.471218
3723.566369,-5921.647536,2220.617826,-77375.645298
3723.568943,-3108.864956,5921.647536,-71246.881314
3723.571517,4737.318029,4737.318029,-70787.224015
3723.574091,-13471.748144,8290.306550,-71859.757712
3723.576665,-17320.819043,5477.523971,-77069.207099
3723.579239,-5773.606348,12583.501014,-74770.920605
3723.581813,-8586.388927,18209.066173,-72012.976812
3723.584387,7994.224174,7698.141797,-79214.274493
3723.586961,-10807.006753,11843.295072,-71093.662214
3723.589536,-26351.331535,11251.130318,-70634.004916
3723.592110,10214.842000,-14359.995275,-82891.532884
3723.594684,-3997.112087,7698.141797,-69714.690318
3723.597258,6069.688724,-2812.782580,-74924.139704
3723.599832,18209.066173,-2516.700203,-78907.836294
3723.602406,-16136.489536,10658.965565,-63279.488135
3723.604980,2960.823768,-13915.871710,-81665.780087
3723.607554,-3552.988522,3256.906145,-73238.729609
3723.610128,8734.430116,10214.842000,-69408.252119
3723.612702,2220.617826,1036.288319,-73851.606007
3723.615277,-10807.006753,-740.205942,-77222.426198
3723.617851,-1036.288319,-592.164754,-75077.358804
3723.620425,-1036.288319,3552.988522,-75077.358804
3723.622999,444.123565,3404.947333,-77988.521696
3723.625573,5477.523971,-2220.617826,-80899.684589
3723.628147,4441.235652,-2220.617826,-77375.645298
3723.630721,6365.771101,-8142.265362,-76303.111601
3723.633295,-10510.924376,-296.082377,-69101.813920
3723.635869,13027.624579,-6661.853478,-72932.291410
3723.638443,-2072.576638,5033.400406,-70787.224015
3723.641018,-5773.606348,4145.153275,-73391.948708
3723.643592,296.082377,9178.553681,-75537.016103
3723.646166,-26647.413912,14063.912898,-70940.443115
3723.648740,7105.977043,-4145.153275,-85036.600278
3723.651314,444.123565,11695.253884,-73085.510509
3723.653888,-16136.489536,20577.725188,-62513.392637
3723.656462,14656.077652,-7402.059420,-80593.246390
3723.659036,-15692.365970,11843.295072,-68948.594820
3723.661611,-15248.242405,15692.365970,-69561.471218
3723.664185,-5033.400406,3108.864956,-77835.302597
3723.666759,-7994.224174,7550.100608,-71859.757712
3723.669333,4441.235652,4441.235652,-72625.853210
3723.671907,-6661.853478,7550.100608,-72779.072310
3723.674481,-19393.395680,10362.883188,-74158.044206
3723.677055,-16284.530724,15396.283594,-70021.128517
3723.679630,-6365.771101,13471.748144,-73391.948708
3723.682204,8290.306550,10066.800811,-76609.549800
3723.684778,-8438.347739,15396.283594,-70327.566716
3723.687352,-22650.301825,15100.201217,-72166.195912
3723.689926,0.000000,-11399.171507,-83197.971083
3723.692500,13619.789333,-3997.112087,-78601.398095
3723.695074,-6217.729913,7105.977043,-67263.184724
3723.697649,23094.425390,-13767.830521,-83197.971083
3723.700223,-19985.560434,13027.624579,-62206.954438
3723.702797,-444.123565,-7846.182985,-77682.083497
3723.705371,5329.482782,-3108.864956,-76456.330700
3723.707945,2812.782580,11399.171507,-65730.993728
3723.710519,6365.771101,-2368.659014,-75230.577904
3723.713094,-9326.594869,1184.329507,-76762.768900
3723.715668,-592.164754,0.000000,-73391.948708
3723.718242,-740.205942,3701.029710,-74464.482406
3723.720816,-1036.288319,1480.411884,-79214.274493
3723.723390,20133.601622,-6661.853478,-79673.931792
3723.725964,-5477.523971,-1776.494261,-66956.746525
3723.728538,-1332.370696,-4145.153275,-71400.100414
3723.731113,3997.112087,-6809.894666,-74464.482406
3723.733654,2812.782580,-5033.400406,-75077.358804
3723.736195,9178.553681,2664.741391,-72319.415011
3723.738736,-19541.436869,15396.283594,-70327.566716
3723.741277,8882.471304,592.164754,-81972.218286
3723.743818,-16136.489536,18801.230927,-72319.415011
3723.746360,-18505.148550,7698.141797,-77835.302597
3723.748901,5329.482782,5921.647536,-76762.768900
3723.751442,-16876.695478,19245.354492,-63892.364533
3723.753983,9622.677246,-6217.729913,-77835.302597
3723.756524,-13027.624579,7846.182985,-71553.319513
3723.759065,-19837.519246,18801.230927,-66037.431928
3723.761607,3404.947333,10066.800811,-75996.673402
3723.764148,-5329.482782,1184.329507,-78448.178995
3723.766689,-5329.482782,148.041188,-76456.330700
3723.769230,-5477.523971,8882.471304,-70940.443115
3723.771771,-21317.931130,12139.377449,-74464.482406
3723.774312,-6069.688724,13471.748144,-72932.291410
3723.776854,-2664.741391,12287.418637,-72319.415011
3723.779395,-5329.482782,15544.324782,-73698.386908
3723.781936,-6217.729913,5625.565159,-73851.606007
3723.784477,-13323.706956,11695.253884,-72319.415011
3723.787018,-5329.482782,148.041188,-74004.825107
3723.789559,18801.230927,-14656.077652,-83964.066581
3723.792101,-14063.912898,15840.407159,-64045.583633
3723.794642,-3256.906145,1628.453072,-73545.167808
3723.797183,4293.194464,-18653.189738,-88254.201370
3723.799724,-15692.365970,13471.748144,-65884.212828
3723.802265,13915.871710,-5181.441594,-79827.150892
3723.804806,6809.894666,-592.164754,-79214.274493
3723.807348,-148.041188,5477.523971,-73238.729609
3723.809889,-3108.864956,-296.082377,-77069.207099
3723.812430,-2072.576638,2516.700203,-74770.920605
3723.814971,3404.947333,3701.029710,-70634.004916
3723.817512,-4145.153275,4589.276840,-72625.853210
3723.820053,13027.624579,-10066.800811,-79214.274493
3723.822595,-1184.329507,-4737.318029,-74770.920605
3723.825136,-4145.153275,-1184.329507,-74464.482406
3723.827677,5625.565159,-9326.594869,-77988.521696
3723.830218,-1628.453072,3552.988522,-72166.195912
3723.832759,-7105.977043,6661.853478,-70327.566716
3723.835307,2812.782580,3997.112087,-77528.864398
3723.837855,-29460.196492,23834.631332,-67416.403824
3723.840402,7550.100608,-4737.318029,-85496.257577
3723.842950,-15692.365970,19393.395680,-71246.881314
3723.845498,-5329.482782,16876.695478,-68335.718422
3723.848045,9622.677246,-10066.800811,-84117.285680
3723.850593,-23094.425390,16580.613101,-67876.061123
3723.853141,-4589.276840,2664.741391,-78141.740796
3723.855688,-11695.253884,9474.636058,-76456.330700
3723.858236,0.000000,9326.594869,-71400.100414
3723.860784,0.000000,3997.112087,-71400.100414
3723.863331,-7846.182985,5773.606348,-71400.100414
3723.865879,-5921.647536,10362.883188,-78141.740796
3723.868426,-18653.189738,17024.736666,-71246.881314
3723.870974,-1036.288319,14952.160028,-72779.072310
3723.873522,1332.370696,8882.471304,-76915.987999
3723.876069,-15544.324782,10955.047942,-71859.757712
3723.878617,-13027.624579,11843.295072,-70480.785816
3723.881165,-3849.070898,-7846.182985,-79673.931792
3723.883712,16432.571912,-7105.977043,-82585.094684
3723.886260,-1776.494261,5773.606348,-70021.128517
3723.888808,15396.283594,-12435.459826,-82585.094684
3723.891355,3997.112087,-9474.636058,-79520.712692
3723.893903,-14952.160028,9770.718434,-64964.898230
3723.896451,14508.036463,-8586.388927,-82891.532884
3723.898998,6809.894666,4441.235652,-75996.673402
3723.901546,-6217.729913,5181.441594,-73238.729609
3723.904094,-10214.842000,1036.288319,-77835.302597
3723.906641,1480.411884,148.041188,-75843.454302
3723.909189,-1924.535449,4589.276840,-70940.443115
3723.911737,6513.812290,2220.617826,-72625.853210
3723.914284,15544.324782,-8438.347739,-77988.521696
3723.916832,-8734.430116,-2812.782580,-75077.358804
3723.919380,2220.617826,-3256.906145,-74617.701505
3723.921927,4885.359217,-7105.977043,-75383.797003
3723.924475,4293.194464,5329.482782,-70787.224015
3723.927023,-10066.800811,6513.812290,-70021.128517
3723.929570,2516.700203,5033.400406,-80440.027290
3723.932118,-23390.507767,23094.425390,-66956.746525
3723.934666,-4441.235652,-2072.576638,-84423.723880
3723.937219,2960.823768,2960.823768,-80133.589091
3723.939773,-8438.347739,18209.066173,-63432.707234
3723.942326,0.000000,-3849.070898,-77375.645298
3723.944880,-7550.100608,7846.182985,-73238.729609
3723.947433,-19837.519246,15248.242405,-68029.280222
3723.949987,296.082377,6069.688724,-76762.768900
3723.952540,-3997.112087,5625.565159,-70634.004916
3723.955094,-5921.647536,7994.224174,-68948.594820
3723.957647,-7550.100608,5625.565159,-74311.263306
3723.960200,-16580.613101,11547.212695,-74770.920605
3723.962754,-13175.665768,18061.024985,-69561.471218
3723.965307,-148.041188,7402.059420,-75690.235202
3723.967861,-6217.729913,13323.706956,-75077.358804
3723.970414,-11695.253884,11695.253884,-73085.510509
3723.972968,-7105.977043,6365.771101,-76456.330700
3723.975521,-10955.047942,4441.235652,-69101.813920
3723.978075,20577.725188,-10214.842000,-74617.701505
3723.980628,7550.100608,5921.647536,-72166.195912
3723.983182,-11843.295072,2516.700203,-70174.347617
3723.985735,7846.182985,-14656.077652,-84117.285680
3723.988289,-18505.148550,11251.130318,-68488.937521
3723.990842,13619.789333,-2368.659014,-78907.836294
3723.993396,9770.718434,-1628.453072,-80440.027290
3723.995949,-5625.565159,6661.853478,-74158.044206
3723.998503,-5773.606348,1480.411884,-74158.044206
3724.001056,-8438.347739,740.205942,-75690.235202
3724.003610,7550.100608,1776.494261,-74617.701505
3724.006163,3997.112087,2220.617826,-72779.072310
3724.008717,12731.542202,-7402.059420,-77528.864398
3724.011270,6661.853478,-6957.935855,-79061.055394
3724.013824,-9030.512492,-888.247130,-71400.100414
3724.016377,3997.112087,-9918.759623,-77835.302597
3724.018930,13767.830521,-3997.112087,-76609.549800
3724.021484,-18653.189738,22946.384202,-67109.965625
3724.024037,-1036.288319,4293.194464,-76609.549800
3724.026591,-13915.871710,17912.983796,-69255.033019
3724.029144,-22206.178260,20133.601622,-64045.583633
3724.031698,9326.594869,-3701.029710,-84270.504780
3724.034251,-8438.347739,16728.654289,-69408.252119
3724.036805,-3997.112087,2368.659014,-74924.139704
3724.039362,-11103.089130,1628.453072,-79673.931792
3724.041920,-12583.501014,14211.954086,-68029.280222
3724.044477,296.082377,5625.565159,-70174.347617
3724.047035,-2664.741391,3849.070898,-75537.016103
3724.049593,2368.659014,148.041188,-77528.864398
3724.052150,-22502.260637,13767.830521,-71553.319513
3724.054708,-9474.636058,9326.594869,-81512.560987
3724.057265,-2812.782580,8290.306550,-78141.740796
3724.059823,-8586.388927,14804.118840,-73238.729609
3724.062380,3256.906145,9178.553681,-76456.330700
3724.064938,-25315.043216,11843.295072,-74158.044206
3724.067495,148.041188,-6217.729913,-78754.617194
3724.070053,14211.954086,-3997.112087,-75996.673402
3724.072611,-10807.006753,2516.700203,-68335.718422
3724.075168,27535.661042,-11399.171507,-78294.959896
3724.077726,-18505.148550,11399.171507,-61440.858940
3724.080283,-15396.283594,6069.688724,-70174.347617
3724.082841,19985.560434,-5625.565159,-80899.684589
3724.085398,148.041188,8586.388927,-70174.347617
3724.087956,1332.370696,5181.441594,-71553.319513
3724.090513,-1036.288319,-6513.812290,-79214.274493
3724.093071,-9622.677246,592.164754,-74924.139704
3724.095629,3997.112087,9178.553681,-69714.690318
3724.098186,-1036.288319,2072.576638,-75996.673402
3724.100744,15544.324782,-6661.853478,-78448.178995
3724.103301,-2072.576638,-3552.988522,-70634.004916
3724.105859,-4737.318029,-4441.235652,-73391.948708
3724.108416,5921.647536,-6957.935855,-73085.510509
3724.110974,-2960.823768,6957.935855,-70021.128517
3724.113531,3701.029710,-444.123565,-79520.712692
3724.116089,8586.388927,1776.494261,-82278.656485
3724.118646,-36270.091158,29016.072926,-64352.021832
3724.121204,-2220.617826,1628.453072,-80746.465489
3724.123762,-1776.494261,9326.594869,-74004.825107
3724.126319,-12435.459826,20429.683999,-62053.735338
3724.128877,13915.871710,-9030.512492,-82738.313784
3724.131434,-21169.889941,12731.542202,-70634.004916
3724.133992,-12879.583391,10510.924376,-71246.881314
3724.136549,-2220.617826,2960.823768,-78141.740796
3724.139107,-1776.494261,8142.265362,-72779.072310
3724.141668,6513.812290,5477.523971,-71553.319513
3724.144229,-14656.077652,6809.894666,-75383.797003
3724.146790,-15396.283594,15988.448347,-72779.072310
3724.149351,-12139.377449,18357.107362,-65424.555529
3724.151912,-3256.906145,10658.965565,-74004.825107
3724.154473,592.164754,10214.842000,-75996.673402
3724.157034,-25907.207970,16580.613101,-70174.347617
3724.159595,3256.906145,-10214.842000,-82125.437386
3724.162156,-3256.906145,5181.441594,-69255.033019
3724.164717,1776.494261,-4737.318029,-71706.538613
3724.167279,27683.702231,-8734.430116,-80133.589091
3724.169840,-17912.983796,9622.677246,-65271.336430
3724.172401,2072.576638,-9622.677246,-81972.218286
3724.174962,-4441.235652,5181.441594,-72472.634111
3724.177523,-1480.411884,9326.594869,-70634.004916
3724.180084,15544.324782,-5477.523971,-81206.122788
3724.182645,-10362.883188,3108.864956,-71706.538613
3724.185206,-8142.265362,3701.029710,-74924.139704
3724.187767,1776.494261,7105.977043,-69408.252119
3724.190328,444.123565,592.164754,-77682.083497
3724.192889,15988.448347,-6661.853478,-78601.398095
3724.195450,-1628.453072,-1776.494261,-71859.757712
