#time,accel_x,accel_y,accel_z
10693.640837,-2812.782580,-296.082377,-80440.027290
10693.644164,-5773.606348,9918.759623,-75690.235202
10693.647491,-444.123565,6365.771101,-75383.797003
10693.650818,-4737.318029,5477.523971,-75996.673402
10693.654145,-3404.947333,5625.565159,-72779.072310
10693.657472,-1924.535449,2664.741391,-72932.291410
10693.660799,-2960.823768,10807.006753,-67109.965625
10693.664126,-1332.370696,9178.553681,-72932.291410
10693.667412,-2368.659014,-5625.565159,-90399.268764
10693.670698,-5033.400406,9326.594869,-74004.825107
10693.673983,-740.205942,10510.924376,-61747.297139
10693.677269,888.247130,1332.370696,-68948.594820
10693.680555,-5773.606348,8142.265362,-75537.016103
10693.683841,-2516.700203,5773.606348,-79520.712692
10693.687126,-2072.576638,296.082377,-84270.504780
10693.690412,-5033.400406,12287.418637,-67722.842023
10693.693698,-296.082377,7698.141797,-69255.033019
10693.696984,-1628.453072,-1776.494261,-79367.493593
10693.700269,-7254.018232,6365.771101,-75690.235202
10693.703555,-1184.329507,8734.430116,-72319.415011
10693.706841,-1924.535449,-592.164754,-79214.274493
10693.710127,-5181.441594,10362.883188,-70940.443115
10693.713413,1036.288319,4737.318029,-77069.207099
10693.716698,-4885.359217,1776.494261,-78601.398095
10693.719984,-5773.606348,5329.482782,-72472.634111
10693.723270,740.205942,7402.059420,-68948.594820
10693.726556,-3404.947333,4293.194464,-77222.426198
10693.729841,-4145.153275,5181.441594,-81818.999186
10693.733127,-1480.411884,3552.988522,-74158.044206
10693.736413,-3849.070898,7105.977043,-71553.319513
10693.739699,2960.823768,13767.830521,-67722.842023
10693.742985,-740.205942,2368.659014,-86109.133975
10693.746270,-4737.318029,2664.741391,-88407.420469
10693.749556,148.041188,4293.194464,-77222.426198
10693.752842,-148.041188,-1036.288319,-80286.808190
10693.756128,-9326.594869,-740.205942,-77528.864398
10693.759413,-1480.411884,3108.864956,-81818.999186
10693.762699,1776.494261,-3256.906145,-90858.926063
10693.765985,-7846.182985,9474.636058,-77835.302597
10693.769271,5773.606348,7994.224174,-59295.791545
10693.772297,3701.029710,6957.935855,-63432.707234
10693.775324,-16136.489536,9474.636058,-64811.679131
10693.778350,-3849.070898,10658.965565,-72319.415011
10693.781377,1480.411884,1924.535449,-82125.437386
10693.784404,-7105.977043,10510.924376,-72779.072310
10693.787430,148.041188,11251.130318,-63739.145434
10693.790457,-7550.100608,6217.729913,-66803.527426
10693.793483,-2960.823768,7994.224174,-64811.679131
10693.796510,888.247130,8882.471304,-68795.375720
10693.799536,-4589.276840,10214.842000,-76915.987999
10693.802563,-17320.819043,7254.018232,-76149.892501
10693.805590,2072.576638,6957.935855,-79673.931792
10693.808616,-9326.594869,1776.494261,-78141.740796
10693.811643,-7402.059420,3997.112087,-77528.864398
10693.814669,-6217.729913,5181.441594,-72472.634111
10693.817696,-7402.059420,8142.265362,-70174.347617
10693.820722,-5033.400406,11991.336260,-75383.797003
10693.823749,-3701.029710,6513.812290,-84576.942979
10693.826776,-7402.059420,9474.636058,-77835.302597
10693.829802,148.041188,9918.759623,-74004.825107
10693.832829,-1776.494261,3552.988522,-70787.224015
10693.835855,-11547.212695,7254.018232,-66037.431928
10693.838882,-7846.182985,10214.842000,-66803.527426
10693.841908,4145.153275,-1332.370696,-76149.892501
10693.844935,-2072.576638,11251.130318,-67416.403824
10693.847962,3997.112087,16136.489536,-57457.162350
10693.850988,-11991.336260,9030.512492,-66037.431928
10693.854015,-10807.006753,-3552.988522,-105874.397824
10693.857041,10066.800811,-16136.489536,-104035.768628
10693.860068,7550.100608,7254.018232,-45506.072581
10693.863094,-10362.883188,22502.260637,-16088.005458
10693.866121,7994.224174,444.123565,-65271.336430
10693.869208,6069.688724,-4293.194464,-83351.190182
10693.872295,3404.947333,-8586.388927,-96068.375449
10693.875382,148.041188,8438.347739,-64505.240932
10693.878469,-1628.453072,13175.665768,-50562.302868
10693.881556,5329.482782,1776.494261,-73698.386908
10693.884643,3997.112087,0.000000,-75537.016103
10693.887730,-5033.400406,-740.205942,-95915.156350
10693.890817,-4737.318029,5921.647536,-79061.055394
10693.893904,4145.153275,6957.935855,-64505.240932
10693.896991,-8586.388927,3849.070898,-67263.184724
10693.900078,-9178.553681,8438.347739,-65730.993728
10693.903165,-3108.864956,1184.329507,-80593.246390
10693.906252,-2664.741391,-2516.700203,-82431.875585
10693.909339,3997.112087,11251.130318,-60521.544342
10693.912426,444.123565,4145.153275,-60521.544342
10693.915513,-2072.576638,-2664.741391,-75383.797003
10693.918600,10214.842000,-8142.265362,-75383.797003
10693.921687,8290.306550,740.205942,-68335.718422
10693.924774,-3108.864956,10066.800811,-64045.583633
10693.927861,-592.164754,14804.118840,-63279.488135
10693.930948,6513.812290,2368.659014,-76609.549800
10693.934035,6661.853478,4589.276840,-86262.353075
10693.937122,-7254.018232,6661.853478,-87028.448573
10693.940209,-11399.171507,-592.164754,-81972.218286
10693.943296,1480.411884,-11991.336260,-96681.251848
10693.946383,8586.388927,3404.947333,-72472.634111
10693.949470,-444.123565,25463.084405,-42135.252390
10693.952557,-15840.407159,24426.796086,-58223.257848
10693.955644,1480.411884,4293.194464,-60827.982541
10693.958731,3256.906145,-8438.347739,-111083.847210
10693.961818,-4885.359217,6809.894666,-99898.852939
10693.964905,-3256.906145,11103.089130,-73698.386908
10693.968032,-7402.059420,10807.006753,-68488.937521
10693.971159,-7994.224174,13471.748144,-66343.870127
10693.974286,-3701.029710,8142.265362,-75843.454302
10693.977414,-5921.647536,-1184.329507,-90399.268764
10693.980541,-3108.864956,5773.606348,-78907.836294
10693.983668,-1184.329507,8734.430116,-68948.594820
10693.986795,-11399.171507,10955.047942,-77835.302597
10693.989923,-5625.565159,11103.089130,-87028.448573
10693.993050,10510.924376,6957.935855,-85802.695776
10693.996177,296.082377,740.205942,-88867.077768
10693.999304,-3256.906145,8438.347739,-75383.797003
10694.002432,-4589.276840,9918.759623,-75537.016103
10694.005559,-9030.512492,9474.636058,-86875.229473
10694.008686,-6957.935855,10955.047942,-88713.858668
10694.011813,-4737.318029,10510.924376,-86415.572174
10694.014941,-8586.388927,1628.453072,-98519.881043
10694.018068,-6513.812290,3404.947333,-89939.611465
10694.021195,-3849.070898,6809.894666,-70327.566716
10694.024322,-14656.077652,15544.324782,-63585.926334
10694.027450,-8142.265362,9918.759623,-79367.493593
10694.030577,-1184.329507,-2368.659014,-98673.100142
10694.033704,-7254.018232,9918.759623,-70327.566716
10694.036831,-9030.512492,17468.860231,-56078.190454
10694.039959,-13027.624579,-4145.153275,-97600.566445
10694.068302,3849.070898,3108.864956,-63126.269035
10694.071452,888.247130,4737.318029,-71246.881314
10694.074601,0.000000,3849.070898,-79367.493593
10694.077750,-3997.112087,-2220.617826,-77682.083497
10694.080900,3404.947333,7105.977043,-65730.993728
10694.084049,3552.988522,6661.853478,-69561.471218
10694.087198,-4589.276840,4293.194464,-65424.555529
10694.090348,444.123565,7698.141797,-73851.606007
10694.093497,2664.741391,888.247130,-86875.229473
10694.096646,-1036.288319,2072.576638,-77069.207099
10694.099795,3108.864956,740.205942,-64505.240932
10694.102945,-8142.265362,4441.235652,-64352.021832
10694.106094,-3552.988522,2368.659014,-72012.976812
10694.109243,3256.906145,148.041188,-80286.808190
10694.112393,2072.576638,3404.947333,-80133.589091
10694.115542,296.082377,7698.141797,-67722.842023
10694.118691,10807.006753,2664.741391,-63432.707234
10694.121841,2664.741391,444.123565,-62666.611736
10694.124990,-9918.759623,9474.636058,-66190.651027
10694.128139,-11843.295072,1332.370696,-89633.173266
10694.131289,1184.329507,-7550.100608,-99132.757441
10694.134438,-592.164754,10955.047942,-46425.387179
10694.137587,2220.617826,32421.020260,-11644.651570
10694.140737,888.247130,3108.864956,-62053.735338
10694.143761,-3701.029710,888.247130,-72932.291410
10694.146785,1480.411884,-1184.329507,-102810.015832
10694.149809,-5921.647536,8142.265362,-79367.493593
10694.152833,4589.276840,18061.024985,-54086.342159
10694.155857,-1332.370696,13619.789333,-68795.375720
10694.158882,-14508.036463,2812.782580,-91778.240660
10694.161906,-6513.812290,6069.688724,-88560.639569
10694.164930,-6957.935855,4589.276840,-88254.201370
10694.167954,-8290.306550,6957.935855,-81052.903688
10694.170978,-15100.201217,7698.141797,-76149.892501
10694.174002,-8734.430116,5477.523971,-86875.229473
10694.177027,-10510.924376,3404.947333,-87488.105872
10694.180051,-12731.542202,9178.553681,-79061.055394
10694.183075,-8438.347739,8882.471304,-75843.454302
10694.186099,-10066.800811,10658.965565,-77222.426198
10694.189123,1332.370696,4885.359217,-82585.094684
10694.192147,-6217.729913,5773.606348,-81206.122788
10694.195172,-8882.471304,4737.318029,-87641.324971
10694.198196,-2960.823768,13915.871710,-69408.252119
10694.201220,-6661.853478,5033.400406,-67569.622924
10694.204244,-10510.924376,13471.748144,-72472.634111
10694.207268,-4589.276840,14211.954086,-75537.016103
10694.210292,-2072.576638,3552.988522,-89326.735067
10694.213317,7698.141797,2220.617826,-79520.712692
10694.216341,5033.400406,12731.542202,-59908.667944
10694.219365,-6365.771101,12435.459826,-62819.830836
10694.222389,-9622.677246,-148.041188,-101124.605736
10694.225413,-4589.276840,-9474.636058,-120123.774086
10694.228438,-11251.130318,6661.853478,-86262.353075
10694.231462,-5181.441594,6513.812290,-84883.381178
10694.234486,-7105.977043,13323.706956,-69255.033019
10694.237510,-7105.977043,8142.265362,-81359.341888
10694.240461,-9030.512492,-4441.235652,-94076.527154
10694.243412,2812.782580,-2812.782580,-85343.038477
10694.246363,-3849.070898,-3997.112087,-90552.487864
10694.249314,1776.494261,8438.347739,-66497.089226
10694.252265,-5033.400406,2516.700203,-64964.898230
10694.255216,1924.535449,-296.082377,-74311.263306
10694.258167,3108.864956,5773.606348,-70174.347617
10694.261117,444.123565,4589.276840,-70327.566716
10694.264068,-5181.441594,3404.947333,-72932.291410
10694.267019,4589.276840,11991.336260,-61747.297139
10694.269970,4589.276840,-740.205942,-67569.622924
10694.272921,740.205942,-5033.400406,-75077.358804
10694.275872,2072.576638,5921.647536,-62206.954438
10694.278823,-5625.565159,5773.606348,-68488.937521
10694.281774,-4885.359217,5773.606348,-69561.471218
10694.284725,3404.947333,9622.677246,-84883.381178
10694.287676,-13471.748144,2812.782580,-96221.594549
10694.290627,-18209.066173,-1332.370696,-92237.897959
10694.293578,5329.482782,-2220.617826,-79214.274493
10694.296529,-4441.235652,6957.935855,-82891.532884
10694.299480,-14804.118840,23982.672521,-62513.392637
10694.302430,-24722.878463,11695.253884,-90552.487864
10694.305381,-13175.665768,-7254.018232,-120276.993186
10694.308332,3997.112087,-2812.782580,-79980.369991
10694.311283,2960.823768,18061.024985,-24668.275036
10694.314234,-8882.471304,14359.995275,-38611.213099
10694.317185,-3701.029710,10510.924376,-53473.465760
10694.320136,4737.318029,-2072.576638,-79827.150892
10694.323087,1480.411884,1776.494261,-80133.589091
10694.326038,2664.741391,22502.260637,-56691.066852
10694.328989,-6661.853478,9622.677246,-60368.325242
10694.331940,-10807.006753,3404.947333,-75537.016103
10694.334840,2220.617826,11547.212695,-66343.870127
10694.337751,-5625.565159,5033.400406,-73698.386908
10694.340662,-9770.718434,7402.059420,-80899.684589
10694.343573,-10214.842000,4589.276840,-78448.178995
10694.346484,-3701.029710,8142.265362,-77069.207099
10694.349395,-4737.318029,7402.059420,-71706.538613
10694.352306,-7994.224174,11843.295072,-71400.100414
10694.355217,-5625.565159,14063.912898,-81359.341888
10694.358128,-3552.988522,4589.276840,-85496.257577
10694.361039,-1480.411884,6661.853478,-77988.521696
10694.363950,-4293.194464,10066.800811,-73085.510509
10694.366861,-7698.141797,4145.153275,-70787.224015
10694.369772,7105.977043,5033.400406,-65271.336430
10694.372683,-3552.988522,7698.141797,-69714.690318
10694.375594,-4145.153275,7550.100608,-85343.038477
10694.378505,1332.370696,-2516.700203,-87794.544071
10694.381416,10362.883188,-7402.059420,-81972.218286
10694.384327,17616.901420,19245.354492,-40603.061394
10694.387238,4737.318029,14063.912898,-49336.550071
10694.390149,-11695.253884,-4589.276840,-106487.274222
10694.393060,-7698.141797,-1776.494261,-119817.335887
10694.395971,6661.853478,2664.741391,-85343.038477
10694.398881,-6069.688724,8882.471304,-71093.662214
10694.401792,1776.494261,7846.182985,-70480.785816
10694.404703,-9178.553681,-592.164754,-89173.515967
10694.407614,-3997.112087,-3849.070898,-99285.976541
10694.410525,2072.576638,2812.782580,-82125.437386
10694.413436,888.247130,10510.924376,-70021.128517
10694.416347,-12139.377449,3108.864956,-71400.100414
10694.419258,-4145.153275,8586.388927,-76149.892501
10694.422169,-2072.576638,-444.123565,-88100.982270
10694.425080,740.205942,2664.741391,-82431.875585
10694.427973,740.205942,10362.883188,-67416.403824
10694.430866,-1924.535449,10807.006753,-66956.746525
10694.433759,-5033.400406,-1184.329507,-71553.319513
10694.436652,444.123565,-2220.617826,-85189.819378
10694.439545,-1036.288319,-1184.329507,-87334.886772
10694.442438,-4589.276840,10214.842000,-72166.195912
10694.445331,8734.430116,9326.594869,-70634.004916
10694.448224,-10955.047942,1480.411884,-85649.476676
10694.451116,-13619.789333,7105.977043,-86415.572174
10694.454009,6957.935855,-2664.741391,-87947.763170
10694.456902,7994.224174,2072.576638,-78601.398095
10694.459795,-8438.347739,21762.054695,-67876.061123
10694.462688,-26351.331535,10362.883188,-92850.774358
10694.465581,-24278.754898,6809.894666,-111543.504509
10694.468474,-7698.141797,-1480.411884,-124107.470676
10694.471367,-4293.194464,7550.100608,-82278.656485
10694.474260,-11251.130318,10510.924376,-51634.836565
10694.477153,-10658.965565,10510.924376,-55924.971354
10694.480046,3997.112087,1184.329507,-74617.701505
10694.482938,-1924.535449,-4145.153275,-90092.830565
10694.485831,-1776.494261,7254.018232,-78601.398095
10694.488724,-7550.100608,13471.748144,-56844.285952
10694.491617,-3404.947333,8142.265362,-54239.561258
10694.494510,6809.894666,7402.059420,-67722.842023
10694.497403,-1036.288319,4441.235652,-75077.358804
10694.500296,-1924.535449,6069.688724,-73085.510509
10694.503189,-3552.988522,14211.954086,-51634.836565
10694.506082,-7254.018232,8734.430116,-61287.639840
10694.508975,-2960.823768,5181.441594,-78294.959896
10694.511867,-4145.153275,8438.347739,-81359.341888
10694.514760,-10955.047942,8734.430116,-73238.729609
10694.517653,-2664.741391,6661.853478,-68335.718422
10694.520543,-6661.853478,11251.130318,-60827.982541
10694.523432,-8734.430116,5625.565159,-77069.207099
10694.526321,444.123565,5625.565159,-79520.712692
10694.529211,-3404.947333,8290.306550,-68488.937521
10694.532100,-13323.706956,6513.812290,-71553.319513
10694.534989,-2812.782580,2220.617826,-78601.398095
10694.537879,11695.253884,2220.617826,-61900.516238
10694.540768,3552.988522,9770.718434,-47957.578175
10694.543657,-4885.359217,11251.130318,-72319.415011
10694.546547,3701.029710,5329.482782,-72472.634111
10694.549436,-8290.306550,-6661.853478,-113995.010102
10694.552325,2072.576638,3701.029710,-100358.510238
10694.555215,592.164754,13027.624579,-68795.375720
10694.558104,-9918.759623,9474.636058,-74004.825107
10694.560993,-10362.883188,-1776.494261,-101584.263035
10694.563883,-6513.812290,-8290.306550,-100205.291138
10694.566772,-2220.617826,-5625.565159,-100052.072039
10694.569661,3256.906145,4441.235652,-68029.280222
10694.572551,-11103.089130,7550.100608,-59295.791545
10694.575440,5329.482782,296.082377,-72932.291410
10694.578329,-444.123565,-2516.700203,-70940.443115
10694.581219,3552.988522,-1924.535449,-73238.729609
10694.584108,4145.153275,1480.411884,-67263.184724
10694.586997,7994.224174,3404.947333,-59755.448844
10694.589887,1924.535449,-1480.411884,-60827.982541
10694.592776,4737.318029,2072.576638,-62513.392637
10694.595665,7994.224174,10658.965565,-67263.184724
10694.598555,9770.718434,3108.864956,-67263.184724
10694.601444,-5033.400406,3552.988522,-79367.493593
10694.604333,-3997.112087,4441.235652,-81512.560987
10694.607223,5181.441594,0.000000,-81359.341888
10694.610112,-4885.359217,14359.995275,-68948.594820
10694.613103,-24278.754898,12287.418637,-87181.667672
10694.616095,-29164.114115,2072.576638,-105721.178724
10694.619086,-12435.459826,-7402.059420,-125792.880772
10694.622077,2516.700203,5773.606348,-71093.662214
10694.625069,-5477.523971,18061.024985,-27119.780629
10694.628060,-740.205942,9178.553681,-49642.988270
10694.631051,-17468.860231,6217.729913,-68029.280222
10694.634043,-5773.606348,-2960.823768,-90092.830565
10694.637034,6513.812290,6069.688724,-74004.825107
10694.640025,1628.453072,18505.148550,-49949.426470
10694.643017,-9178.553681,12139.377449,-59142.572446
10694.646008,0.000000,6217.729913,-74311.263306
10694.648999,12139.377449,2812.782580,-77222.426198
10694.651990,-2072.576638,6809.894666,-66497.089226
10694.654982,-5181.441594,11991.336260,-53167.027561
10694.657973,888.247130,4441.235652,-65118.117330
10694.660964,-8586.388927,3849.070898,-77528.864398
10694.663956,-1480.411884,13471.748144,-66497.089226
10694.666947,-2516.700203,10955.047942,-64811.679131
10694.669938,-5773.606348,6365.771101,-75230.577904
10694.672930,-444.123565,11399.171507,-81972.218286
10694.675921,-12435.459826,3997.112087,-86875.229473
10694.678912,-12139.377449,13767.830521,-76762.768900
10694.681904,-2072.576638,11103.089130,-72625.853210
10694.684895,-444.123565,6217.729913,-72932.291410
10694.687886,-2072.576638,9178.553681,-78907.836294
10694.690878,-7994.224174,13915.871710,-82585.094684
10694.693869,-12139.377449,2812.782580,-98366.661943
10694.696860,-1480.411884,-13767.830521,-107406.588820
10694.699852,-6809.894666,-8586.388927,-115527.201098
10694.702843,-15544.324782,6809.894666,-75996.673402
10694.705834,-6513.812290,7254.018232,-54086.342159
10694.708905,2664.741391,4293.194464,-67722.842023
10694.711977,2220.617826,-2516.700203,-77835.302597
10694.715048,-6069.688724,-4145.153275,-83504.409282
10694.718119,4145.153275,4441.235652,-67416.403824
10694.721190,1332.370696,4885.359217,-61747.297139
10694.724261,11843.295072,7550.100608,-61747.297139
10694.727333,5921.647536,4145.153275,-64811.679131
10694.730404,-888.247130,1628.453072,-64198.802732
10694.733475,5329.482782,8882.471304,-60827.982541
10694.736546,5921.647536,-1332.370696,-68488.937521
10694.739617,5773.606348,2220.617826,-61440.858940
10694.742688,8586.388927,8142.265362,-41828.814191
10694.745760,3701.029710,-2368.659014,-60215.106143
10694.748831,3701.029710,-9178.553681,-87947.763170
10694.751902,1480.411884,5181.441594,-74311.263306
10694.754973,7698.141797,3997.112087,-63739.145434
10694.758044,2220.617826,1332.370696,-64045.583633
10694.761116,-4737.318029,6809.894666,-76609.549800
10694.764187,6957.935855,-4737.318029,-92850.774358
10694.767258,11251.130318,-296.082377,-76149.892501
10694.770329,5773.606348,10362.883188,-52094.493864
10694.773400,-3256.906145,20577.725188,-53779.903960
10694.776471,-16432.571912,12583.501014,-90705.706963
10694.779543,-8586.388927,3256.906145,-121502.745983
10694.807708,1776.494261,8882.471304,-65271.336430
10694.810838,-148.041188,6957.935855,-66956.746525
10694.813967,-7550.100608,8586.388927,-73851.606007
10694.817097,-7994.224174,7402.059420,-79214.274493
10694.820226,-7402.059420,8586.388927,-79214.274493
10694.823356,-1628.453072,12731.542202,-77682.083497
10694.826485,2072.576638,13619.789333,-67263.184724
10694.829615,-9326.594869,11251.130318,-66650.308326
10694.832744,-6365.771101,8734.430116,-72932.291410
10694.835874,-4885.359217,12287.418637,-76149.892501
10694.839003,-5181.441594,6661.853478,-81665.780087
10694.842133,-1332.370696,2664.741391,-79520.712692
10694.845262,-592.164754,5329.482782,-74924.139704
10694.848392,-3701.029710,13915.871710,-65118.117330
10694.851521,-2220.617826,12139.377449,-77375.645298
10694.854651,-8882.471304,-11695.253884,-114301.448302
10694.857780,-5773.606348,-8882.471304,-101277.824836
10694.860910,-14359.995275,1628.453072,-92544.336158
10694.864040,-7254.018232,6069.688724,-65271.336430
10694.867169,-2960.823768,11251.130318,-68948.594820
10694.870299,-7402.059420,740.205942,-86262.353075
10694.873428,-6069.688724,-6365.771101,-91471.802461
10694.876558,296.082377,8290.306550,-63892.364533
10694.879687,5477.523971,5329.482782,-67263.184724
10694.882865,740.205942,7402.059420,-59908.667944
10694.886042,2072.576638,8290.306550,-65271.336430
10694.889220,296.082377,740.205942,-77682.083497
10694.892398,-296.082377,1184.329507,-81052.903688
10694.895575,7698.141797,7105.977043,-66037.431928
10694.898753,3256.906145,6513.812290,-63739.145434
10694.901931,-5773.606348,-4293.194464,-65884.212828
10694.905108,4293.194464,-2368.659014,-72319.415011
10694.908286,5181.441594,9178.553681,-65271.336430
10694.911464,3849.070898,3552.988522,-69101.813920
10694.914641,5033.400406,9178.553681,-64811.679131
10694.917819,-13323.706956,6957.935855,-76149.892501
10694.920997,9770.718434,-2812.782580,-100052.072039
10694.924174,5181.441594,2516.700203,-87028.448573
10694.927352,-24426.796086,13915.871710,-73851.606007
10694.930530,-27831.743419,7254.018232,-95149.060852
10694.933707,-21465.972318,3701.029710,-113688.571903
10694.936885,-6957.935855,-444.123565,-109551.656214
10694.940063,-7994.224174,11251.130318,-63126.269035
10694.943240,-3404.947333,10807.006753,-47344.701776
10694.946418,-13767.830521,-888.247130,-61747.297139
10694.949596,888.247130,5329.482782,-78448.178995
10694.952773,6217.729913,7698.141797,-69867.909418
10694.955951,1628.453072,6957.935855,-62360.173537
10694.959129,-7105.977043,6957.935855,-58070.038748
10694.962306,5773.606348,9178.553681,-58989.353346
10694.965484,-5773.606348,3256.906145,-58376.476948
10694.968662,-5329.482782,9918.759623,-63739.145434
10694.971839,-10214.842000,7994.224174,-65118.117330
10694.975017,-15100.201217,9178.553681,-67109.965625
10694.978195,-3108.864956,10658.965565,-62819.830836
10694.981372,10362.883188,12139.377449,-51481.617466
10694.984587,148.041188,6069.688724,-56078.190454
10694.987802,-6069.688724,10955.047942,-60981.201641
10694.991017,-10362.883188,5033.400406,-59602.229744
10694.994231,10658.965565,3108.864956,-61440.858940
10694.997446,11251.130318,6069.688724,-61440.858940
10695.000661,-11251.130318,6365.771101,-66803.527426
10695.003875,-13767.830521,-296.082377,-72932.291410
10695.007090,17320.819043,-2960.823768,-66497.089226
10695.010305,24130.713709,11843.295072,-43514.224286
10695.013520,-592.164754,14359.995275,-46118.948980
10695.016734,-5181.441594,-888.247130,-90858.926063
10695.019949,-11103.089130,-4145.153275,-124107.470676
10695.023164,4589.276840,1036.288319,-103116.454031
10695.026379,10955.047942,8882.471304,-88254.201370
10695.029593,-9326.594869,5477.523971,-74464.482406
10695.032808,-15396.283594,-444.123565,-80133.589091
10695.036023,-148.041188,1628.453072,-91778.240660
10695.039238,592.164754,-2072.576638,-91165.364262
10695.042452,-1924.535449,-2072.576638,-90858.926063
10695.045667,-444.123565,7402.059420,-69714.690318
10695.048882,-4589.276840,7550.100608,-69714.690318
10695.052096,5921.647536,5033.400406,-81512.560987
10695.055311,-1332.370696,2664.741391,-83810.847481
10695.058526,-3997.112087,-5033.400406,-88407.420469
10695.061741,1628.453072,-6217.729913,-93003.993457
10695.064955,-2960.823768,4589.276840,-78141.740796
10695.068170,1628.453072,6217.729913,-71093.662214
10695.071385,1184.329507,9918.759623,-74617.701505
10695.074600,-15840.407159,5625.565159,-82278.656485
10695.077814,-1184.329507,-4737.318029,-90705.706963
10695.081029,13619.789333,5477.523971,-79367.493593
10695.084244,-6809.894666,17024.736666,-68795.375720
10695.087406,-29460.196492,6661.853478,-88100.982270
10695.090568,-9918.759623,0.000000,-106180.836023
10695.093730,-1036.288319,2220.617826,-80746.465489
10695.096892,-12287.418637,3997.112087,-85802.695776
10695.100054,-3404.947333,16432.571912,-52400.932063
10695.103216,-16136.489536,6513.812290,-54086.342159
10695.106378,-7698.141797,6365.771101,-73698.386908
10695.109540,5477.523971,6365.771101,-81359.341888
10695.112702,-3997.112087,-888.247130,-83504.409282
10695.115864,-9622.677246,9030.512492,-61440.858940
10695.119026,-9918.759623,14508.036463,-45965.729880
10695.122189,2664.741391,7994.224174,-65118.117330
10695.125351,-1332.370696,148.041188,-83964.066581
10695.128513,-148.041188,12583.501014,-70480.785816
10695.131675,-10362.883188,11251.130318,-63432.707234
10695.134837,1332.370696,13471.748144,-52247.712964
10695.137999,5181.441594,12435.459826,-61594.078039
10695.141161,-3404.947333,9770.718434,-79367.493593
10695.144323,-5033.400406,4293.194464,-81665.780087
10695.147485,-5033.400406,9918.759623,-70021.128517
10695.150647,-6069.688724,7846.182985,-60981.201641
10695.153809,3997.112087,5329.482782,-69101.813920
10695.156971,3552.988522,4441.235652,-78601.398095
10695.160133,-7846.182985,13323.706956,-73238.729609
10695.163295,-8142.265362,12139.377449,-83351.190182
10695.166457,-444.123565,3404.947333,-85496.257577
10695.169619,-11103.089130,-8438.347739,-121655.965082
10695.172781,-11695.253884,-1480.411884,-100052.072039
10695.175944,-7402.059420,-888.247130,-65577.774629
10695.179106,-6957.935855,9326.594869,-62360.173537
10695.182268,1628.453072,6957.935855,-71400.100414
10695.185430,3997.112087,-8142.265362,-76915.987999
10695.188632,-3701.029710,-8882.471304,-84730.162079
10695.191834,7402.059420,6661.853478,-62666.611736
10695.195036,11399.171507,8142.265362,-53779.903960
10695.198238,0.000000,3849.070898,-60674.763442
10695.201440,7402.059420,5625.565159,-71859.757712
10695.204642,7402.059420,7254.018232,-74158.044206
10695.207844,6513.812290,3849.070898,-73545.167808
10695.211046,7994.224174,1036.288319,-68642.156621
10695.214248,-444.123565,2072.576638,-64198.802732
10695.217450,1184.329507,444.123565,-72625.853210
10695.220652,10066.800811,1924.535449,-67722.842023
10695.223854,6661.853478,2368.659014,-70174.347617
10695.227056,-444.123565,11103.089130,-67876.061123
10695.230258,2072.576638,-1184.329507,-76456.330700
10695.233460,7550.100608,-4885.359217,-82738.313784
10695.236662,3108.864956,13915.871710,-65577.774629
10695.239864,1480.411884,20429.683999,-44127.100685
10695.243066,-21169.889941,16876.695478,-79980.369991
10695.246268,-9178.553681,2664.741391,-129163.700963
10695.249470,-11843.295072,444.123565,-119357.678588
10695.252672,-20577.725188,11991.336260,-77222.426198
10695.255874,-13175.665768,19393.395680,-63279.488135
10695.259076,-12287.418637,17024.736666,-76149.892501
10695.262278,-12139.377449,7994.224174,-95302.279951
10695.265480,-5181.441594,2960.823768,-90552.487864
10695.268682,-9918.759623,10510.924376,-71093.662214
10695.271884,-7402.059420,5625.565159,-64198.802732
10695.275086,-740.205942,7698.141797,-66497.089226
10695.278288,-7402.059420,8142.265362,-70327.566716
10695.281490,-8142.265362,6513.812290,-77069.207099
10695.284692,-592.164754,10214.842000,-82891.532884
10695.287894,-3404.947333,12731.542202,-70940.443115
10695.291135,-3701.029710,17172.777854,-60827.982541
10695.294368,-1776.494261,13175.665768,-64198.802732
10695.297601,-10658.965565,13175.665768,-67416.403824
10695.300834,-2960.823768,5477.523971,-81972.218286
10695.304067,2812.782580,592.164754,-86568.791274
10695.307300,-7846.182985,12731.542202,-72472.634111
10695.310533,-15248.242405,13767.830521,-79061.055394
10695.313766,-4737.318029,9178.553681,-83197.971083
10695.316999,-10066.800811,-14211.954086,-119357.678588
10695.320232,1184.329507,-8586.388927,-98979.538342
10695.323465,-6809.894666,9326.594869,-45046.415282
10695.326698,3108.864956,9178.553681,-44127.100685
10695.329931,1332.370696,5181.441594,-56078.190454
10695.333164,296.082377,148.041188,-70021.128517
10695.336397,2072.576638,-740.205942,-70021.128517
10695.339630,5181.441594,2960.823768,-64505.240932
10695.342863,11103.089130,3108.864956,-72012.976812
10695.346096,-4737.318029,6661.853478,-62819.830836
10695.349329,-13915.871710,13471.748144,-56537.847752
10695.352562,-4293.194464,9030.512492,-76609.549800
10695.355795,-2960.823768,1776.494261,-99132.757441
10695.359028,-6069.688724,3552.988522,-71553.319513
10695.362261,444.123565,10807.006753,-46578.606278
10695.365495,-7994.224174,-3552.988522,-72166.195912
10695.368728,3108.864956,-3997.112087,-93310.431656
10695.371961,-11251.130318,-1924.535449,-87181.667672
10695.375194,-1628.453072,8290.306550,-67109.965625
10695.378427,5033.400406,6365.771101,-71246.881314
10695.381660,-16136.489536,-1480.411884,-78141.740796
10695.384893,2072.576638,3256.906145,-88254.201370
10695.388126,3404.947333,-1184.329507,-85036.600278
10695.391359,740.205942,5329.482782,-63739.145434
10695.394615,-6069.688724,22502.260637,-34014.640111
10695.397872,11103.089130,14063.912898,-43973.881585
10695.401129,296.082377,10955.047942,-43973.881585
10695.404386,-3997.112087,1184.329507,-72166.195912
10695.407643,2516.700203,4293.194464,-86262.353075
10695.410899,-2072.576638,13323.706956,-70021.128517
10695.414156,2072.576638,13915.871710,-63892.364533
10695.417413,-4293.194464,10066.800811,-85189.819378
10695.420670,-11991.336260,-592.164754,-84423.723880
10695.423927,-592.164754,3256.906145,-93310.431656
10695.427183,-4885.359217,4441.235652,-72472.634111
10695.430440,-8290.306550,15544.324782,-67722.842023
10695.433697,-11991.336260,9178.553681,-83964.066581
10695.436954,-7402.059420,5625.565159,-91931.459760
10695.440211,-8438.347739,9622.677246,-88254.201370
10695.443467,1184.329507,9326.594869,-77069.207099
10695.446724,-10066.800811,17764.942608,-64658.460031
10695.449981,-8438.347739,6365.771101,-77988.521696
10695.453238,-1924.535449,-1776.494261,-92697.555258
10695.456495,-16136.489536,11843.295072,-84576.942979
10695.459751,-15692.365970,17764.942608,-89173.515967
10695.463008,-10214.842000,5181.441594,-107100.150620
10695.466265,-4885.359217,-12435.459826,-109858.094413
10695.469522,-1184.329507,-444.123565,-64964.898230
10695.472779,1036.288319,10955.047942,-29724.505322
10695.476035,3108.864956,8438.347739,-51941.274764
10695.479292,-2516.700203,1776.494261,-68948.594820
10695.482549,6809.894666,444.123565,-81818.999186
10695.485806,5773.606348,1776.494261,-69408.252119
10695.489063,740.205942,7105.977043,-57457.162350
10695.492319,9178.553681,6513.812290,-69408.252119
10695.495576,444.123565,740.205942,-80593.246390
10695.498851,-2516.700203,888.247130,-82585.094684
10695.502125,8290.306550,7994.224174,-61134.420740
10695.505400,6661.853478,8882.471304,-55924.971354
10695.508675,4293.194464,-2664.741391,-75690.235202
10695.511949,-2960.823768,-2960.823768,-79367.493593
10695.515224,-8438.347739,2812.782580,-75996.673402
10695.518498,14211.954086,-3997.112087,-74924.139704
10695.521773,7846.182985,5477.523971,-69101.813920
10695.525048,-11251.130318,9770.718434,-70634.004916
10695.528322,4145.153275,-2220.617826,-81665.780087
10695.531597,3256.906145,6809.894666,-82125.437386
10695.534872,296.082377,14952.160028,-68335.718422
10695.538146,-22206.178260,10658.965565,-82585.094684
10695.541421,-21762.054695,1628.453072,-115067.543800
10695.544695,-10066.800811,740.205942,-104342.206828
10695.547970,1184.329507,11399.171507,-58836.134246
10695.551245,-3256.906145,16284.530724,-37691.898502
10695.554519,-24574.837274,13027.624579,-55312.094956
10695.557794,-148.041188,9770.718434,-69101.813920
10695.561068,-2516.700203,-444.123565,-79061.055394
10695.564343,2220.617826,8734.430116,-70480.785816
10695.567618,6513.812290,14656.077652,-57763.600549
10695.570892,-7105.977043,4737.318029,-60827.982541
10695.574167,5477.523971,9622.677246,-70021.128517
10695.603131,-14804.118840,7698.141797,-79214.274493
10695.606349,-19245.354492,3552.988522,-89326.735067
10695.609568,-3256.906145,-3108.864956,-90246.049664
10695.612786,18801.230927,4293.194464,-56078.190454
10695.616004,4145.153275,1480.411884,-52247.712964
10695.619222,-7105.977043,8734.430116,-34167.859211
10695.622441,9178.553681,2516.700203,-64811.679131
10695.625659,8882.471304,-3552.988522,-90552.487864
10695.628877,3997.112087,4293.194464,-83810.847481
10695.632096,3404.947333,11251.130318,-62973.049936
10695.635314,4589.276840,6661.853478,-58070.038748
10695.638532,1924.535449,3256.906145,-73545.167808
10695.641750,10066.800811,8290.306550,-89479.954166
10695.644969,-12139.377449,1776.494261,-89020.296868
10695.648187,1776.494261,5329.482782,-83810.847481
10695.651405,-4145.153275,2960.823768,-76456.330700
10695.654623,-1332.370696,148.041188,-73851.606007
10695.657842,-5625.565159,296.082377,-78448.178995
10695.661060,-5773.606348,-2960.823768,-84730.162079
10695.664278,592.164754,-4589.276840,-85649.476676
10695.667496,13175.665768,1332.370696,-76915.987999
10695.670715,-7105.977043,9326.594869,-61747.297139
10695.673933,-12435.459826,4737.318029,-66037.431928
10695.677151,19245.354492,-4441.235652,-79061.055394
10695.680327,10066.800811,8438.347739,-64505.240932
10695.683502,-10658.965565,25907.207970,-54086.342159
10695.686678,-17172.777854,12435.459826,-86568.791274
10695.689853,-10362.883188,-1184.329507,-122422.060580
10695.693029,-10807.006753,7402.059420,-118285.144891
10695.696204,-10807.006753,11399.171507,-93923.308055
10695.699380,-17172.777854,8882.471304,-73851.606007
10695.702555,-19245.354492,10066.800811,-75230.577904
10695.705731,-6513.812290,7550.100608,-86722.010374
10695.708906,-7698.141797,4737.318029,-98060.223744
10695.712082,-15840.407159,4293.194464,-89479.954166
10695.715257,-15100.201217,7550.100608,-75690.235202
10695.718433,-11695.253884,7105.977043,-80286.808190
10695.721609,-5033.400406,3552.988522,-81818.999186
10695.724784,148.041188,8586.388927,-69867.909418
10695.727960,-12435.459826,17172.777854,-60368.325242
10695.731135,-8290.306550,11991.336260,-74158.044206
10695.734311,-10658.965565,11991.336260,-76456.330700
10695.737486,-5625.565159,7254.018232,-73238.729609
10695.740662,-2220.617826,6217.729913,-64811.679131
10695.743837,-9030.512492,5625.565159,-58989.353346
10695.747013,6957.935855,-888.247130,-59908.667944
10695.750188,20133.601622,-1628.453072,-64505.240932
10695.753364,19689.478057,14952.160028,-34627.516510
10695.756539,-592.164754,13471.748144,-39530.527697
10695.759715,9474.636058,-1036.288319,-82738.313784
10695.762890,-5773.606348,-4737.318029,-112769.257306
10695.766066,0.000000,-1628.453072,-95149.060852
10695.769241,13619.789333,7254.018232,-79214.274493
10695.772417,-3552.988522,3552.988522,-65424.555529
10695.775592,-7402.059420,4589.276840,-71400.100414
10695.778768,7846.182985,1628.453072,-86722.010374
10695.781912,-4293.194464,-1332.370696,-98519.881043
10695.785055,-7105.977043,-4441.235652,-96528.032748
10695.788199,-5773.606348,2960.823768,-82278.656485
10695.791343,-4589.276840,6513.812290,-71400.100414
10695.794487,3701.029710,-3256.906145,-84883.381178
10695.797631,-5181.441594,-6069.688724,-83044.751983
10695.800774,-5477.523971,3997.112087,-65271.336430
10695.803918,-6661.853478,3256.906145,-68182.499322
10695.807062,7550.100608,-296.082377,-85496.257577
10695.810206,-2664.741391,148.041188,-82278.656485
10695.813349,-7254.018232,7402.059420,-57763.600549
10695.816493,14211.954086,2516.700203,-56691.066852
10695.819637,10214.842000,-2220.617826,-65424.555529
10695.822781,9178.553681,2812.782580,-62513.392637
10695.825925,0.000000,25907.207970,-22829.645840
10695.829068,6069.688724,15544.324782,-43667.443386
10695.832212,1036.288319,2664.741391,-106334.055122
10695.835356,-11843.295072,888.247130,-121962.403282
10695.838500,-19837.519246,7254.018232,-81665.780087
10695.841643,-3108.864956,17912.983796,-63432.707234
10695.844787,-6217.729913,13915.871710,-60827.982541
10695.847931,-11991.336260,6661.853478,-90858.926063
10695.851075,-8586.388927,-2072.576638,-96374.813648
10695.854219,-740.205942,8586.388927,-72625.853210
10695.857362,-6513.812290,12879.583391,-65271.336430
10695.860506,-4441.235652,13471.748144,-68182.499322
10695.863650,-7402.059420,10362.883188,-96834.470947
10695.866794,-10510.924376,3701.029710,-96528.032748
10695.869938,-3849.070898,10214.842000,-70634.004916
10695.873081,-3404.947333,19541.436869,-53473.465760
10695.876225,-4589.276840,5329.482782,-72779.072310
10695.879369,-1036.288319,2664.741391,-76303.111601
10695.882490,3108.864956,5477.523971,-75383.797003
10695.885610,4885.359217,16136.489536,-66650.308326
10695.888731,-6365.771101,11103.089130,-79367.493593
10695.891852,-7994.224174,-8586.388927,-108632.341616
10695.894973,-2812.782580,-9030.512492,-101584.263035
10695.898094,-10510.924376,-2072.576638,-99745.633840
10695.901215,-4441.235652,1332.370696,-68335.718422
10695.904335,1924.535449,7550.100608,-61594.078039
10695.907456,-4293.194464,3997.112087,-73545.167808
10695.910577,-6217.729913,-1332.370696,-87794.544071
10695.913698,5033.400406,-2812.782580,-93003.993457
10695.916819,6513.812290,3108.864956,-80593.246390
10695.919940,-13915.871710,7846.182985,-63585.926334
10695.923060,2220.617826,10214.842000,-66803.527426
10695.926181,3404.947333,-2072.576638,-82738.313784
10695.929302,-296.082377,-296.082377,-83657.628382
10695.932423,-2812.782580,4737.318029,-62053.735338
10695.935544,-1332.370696,8290.306550,-61134.420740
10695.938664,-4885.359217,5921.647536,-62513.392637
10695.941785,5329.482782,-2368.659014,-84117.285680
10695.944906,-1332.370696,1480.411884,-87028.448573
10695.948027,-11103.089130,5329.482782,-70787.224015
10695.951148,4737.318029,2220.617826,-65577.774629
10695.954269,-444.123565,-2368.659014,-74158.044206
10695.957389,2960.823768,7402.059420,-55465.314055
10695.960510,1036.288319,24130.713709,-34780.735609
10695.963631,6661.853478,10362.883188,-55158.875856
10695.966752,-1776.494261,7550.100608,-95608.718150
10695.969873,-10362.883188,7994.224174,-108479.122517
10695.972994,-8734.430116,7550.100608,-95608.718150
10695.976114,-2664.741391,13027.624579,-85189.819378
10695.979235,148.041188,12879.583391,-77375.645298
10695.982401,-13175.665768,9326.594869,-83044.751983
10695.985568,-2960.823768,1628.453072,-90552.487864
10695.988734,-10214.842000,-148.041188,-84883.381178
10695.991900,-7254.018232,5477.523971,-79214.274493
10695.995066,-6513.812290,9178.553681,-75230.577904
10695.998232,-6809.894666,12879.583391,-82278.656485
10696.001399,-10807.006753,6069.688724,-89939.611465
10696.004565,-8586.388927,10807.006753,-81052.903688
10696.007731,-7846.182985,9474.636058,-68795.375720
10696.010897,-15840.407159,8882.471304,-80440.027290
10696.014063,-17024.736666,8586.388927,-78294.959896
10696.017230,-10214.842000,-444.123565,-86109.133975
10696.020396,15988.448347,-1776.494261,-77222.426198
10696.023562,20577.725188,13915.871710,-44586.757984
10696.026728,-4441.235652,13619.789333,-34167.859211
10696.029894,1480.411884,10955.047942,-32788.887314
10696.033061,11251.130318,-1184.329507,-81972.218286
10696.036227,2220.617826,-1184.329507,-106487.274222
10696.039393,3701.029710,3404.947333,-89633.173266
10696.042559,-1480.411884,5773.606348,-62973.049936
10696.045725,-8142.265362,6957.935855,-63739.145434
10696.048892,-5329.482782,6365.771101,-64964.898230
10696.052058,296.082377,1776.494261,-88713.858668
10696.055224,-10510.924376,740.205942,-91931.459760
10696.058390,-2516.700203,8882.471304,-76609.549800
10696.061556,1628.453072,5625.565159,-76149.892501
10696.064723,-7254.018232,-3108.864956,-87181.667672
10696.067889,-740.205942,-3256.906145,-93770.088955
10696.071055,-3997.112087,148.041188,-85036.600278
10696.074221,-2072.576638,148.041188,-72319.415011
10696.077387,1332.370696,5181.441594,-71246.881314
10696.080554,-3404.947333,2220.617826,-71553.319513
10696.083696,14656.077652,-8734.430116,-74617.701505
10696.086839,13915.871710,-8882.471304,-80440.027290
10696.089981,-3701.029710,16284.530724,-33095.325514
10696.093124,-5625.565159,32124.937883,-23289.303139
10696.096266,11399.171507,6661.853478,-79214.274493
10696.099408,-13767.830521,3256.906145,-125946.099871
10696.102551,-17468.860231,10807.006753,-103729.330429
10696.105693,-2072.576638,6069.688724,-91012.145162
10696.108836,-7698.141797,14952.160028,-68029.280222
10696.111978,-8734.430116,17912.983796,-72012.976812
10696.115121,-4441.235652,1480.411884,-93463.650756
10696.118263,-24278.754898,2368.659014,-92391.117059
10696.121406,-6069.688724,13767.830521,-82278.656485
10696.124548,-1036.288319,14952.160028,-79827.150892
10696.127691,-11547.212695,8290.306550,-87028.448573
10696.130833,-6365.771101,7105.977043,-95455.499051
10696.133976,-3997.112087,11547.212695,-87488.105872
10696.137118,-10955.047942,14508.036463,-76609.549800
10696.140261,-4737.318029,9030.512492,-75077.358804
10696.143403,-1628.453072,8734.430116,-79673.931792
10696.146546,-12435.459826,11399.171507,-81052.903688
10696.149688,-13471.748144,10362.883188,-92850.774358
10696.152830,-11251.130318,-1776.494261,-109551.656214
10696.155973,1184.329507,-13471.748144,-94382.965354
10696.159115,11991.336260,2368.659014,-39224.089498
10696.162258,-7550.100608,10214.842000,-41369.156892
10696.165400,888.247130,12731.542202,-31716.353617
10696.168543,14508.036463,-8142.265362,-66650.308326
10696.171685,4441.235652,-3552.988522,-89173.515967
10696.174828,-592.164754,6957.935855,-75690.235202
10696.177970,7846.182985,5181.441594,-57610.381450
10696.181113,5773.606348,7698.141797,-54239.561258
10696.184238,5033.400406,11103.089130,-56537.847752
10696.187364,7698.141797,1628.453072,-71093.662214
10696.190489,592.164754,3404.947333,-68488.937521
10696.193614,3256.906145,2516.700203,-64505.240932
10696.196740,13471.748144,4145.153275,-55465.314055
10696.199865,3701.029710,-3997.112087,-69867.909418
10696.202991,1924.535449,-2220.617826,-80593.246390
10696.206116,444.123565,3552.988522,-75843.454302
10696.209241,1480.411884,-888.247130,-71093.662214
10696.212367,11251.130318,12139.377449,-74770.920605
10696.215492,7254.018232,15988.448347,-49183.330972
10696.218618,-17320.819043,15544.324782,-63126.269035
10696.221743,-15544.324782,2368.659014,-111083.847210
10696.224868,-7254.018232,1628.453072,-124107.470676
10696.227994,-9770.718434,4441.235652,-86568.791274
10696.231119,-3701.029710,13767.830521,-53779.903960
10696.234245,-14508.036463,8142.265362,-68182.499322
10696.237370,-14508.036463,11399.171507,-72932.291410
10696.240495,-444.123565,3849.070898,-76762.768900
10696.243621,444.123565,5033.400406,-76149.892501
10696.246746,-10955.047942,7698.141797,-66037.431928
10696.249872,-444.123565,2664.741391,-65577.774629
10696.252997,-5625.565159,6957.935855,-60674.763442
10696.256122,-12435.459826,15248.242405,-62819.830836
10696.259248,2812.782580,16876.695478,-60368.325242
10696.262373,-1332.370696,8290.306550,-71093.662214
10696.265499,-6661.853478,10955.047942,-71400.100414
10696.268624,888.247130,12139.377449,-69255.033019
10696.271750,-5773.606348,7994.224174,-75537.016103
10696.274875,-1036.288319,10955.047942,-70480.785816
10696.278000,-7550.100608,11547.212695,-78754.617194
10696.281126,-11399.171507,2516.700203,-95915.156350
10696.284290,8290.306550,-10510.924376,-99745.633840
10696.287462,4145.153275,-3997.112087,-70021.128517
10696.290634,-6217.729913,6069.688724,-63432.707234
10696.293806,2368.659014,6513.812290,-50868.741067
10696.296977,4441.235652,-148.041188,-70021.128517
10696.300149,-444.123565,-3256.906145,-87947.763170
10696.303321,5329.482782,1332.370696,-87488.105872
10696.306493,-1036.288319,6661.853478,-69867.909418
10696.309664,-4885.359217,10362.883188,-59908.667944
10696.312836,7994.224174,11695.253884,-67569.622924
10696.316008,296.082377,-444.123565,-83044.751983
10696.319180,-6365.771101,2220.617826,-77682.083497
10696.322352,888.247130,148.041188,-66190.651027
10696.325523,8142.265362,0.000000,-65424.555529
10696.328695,-3552.988522,-296.082377,-71706.538613
10696.331867,5477.523971,148.041188,-75996.673402
10696.335039,888.247130,-1480.411884,-77222.426198
10696.338210,-12583.501014,6809.894666,-69255.033019
10696.341382,9178.553681,3552.988522,-71706.538613
10696.344554,6513.812290,4145.153275,-65424.555529
10696.347726,-5921.647536,18801.230927,-52247.712964
10696.350898,3108.864956,17764.942608,-37691.898502
10696.354069,6661.853478,12435.459826,-65730.993728
10696.357241,-10955.047942,7105.977043,-106487.274222
10696.360413,-20133.601622,5921.647536,-111390.285409
10696.363585,-12139.377449,6513.812290,-90705.706963
10696.366756,-8142.265362,13323.706956,-73698.386908
10696.369928,1036.288319,12435.459826,-76609.549800
10696.373100,-22354.219448,5477.523971,-79214.274493
10696.376272,-11695.253884,10658.965565,-78294.959896
10696.379444,-3701.029710,3108.864956,-87641.324971
10696.382615,-10807.006753,5773.606348,-87181.667672
10696.385823,-5625.565159,13323.706956,-81665.780087
10696.389031,-2368.659014,6809.894666,-85343.038477
10696.392239,-16728.654289,11547.212695,-77988.521696
10696.395447,-1332.370696,7846.182985,-80899.684589
10696.398655,-6661.853478,10658.965565,-77528.864398
10696.401863,-22354.219448,11251.130318,-74004.825107
10696.405071,2812.782580,8734.430116,-90246.049664
10696.408279,3849.070898,-6365.771101,-95608.718150
10696.411487,15248.242405,-3404.947333,-66037.431928
10696.414695,14063.912898,9770.718434,-28039.095227
10696.417903,4145.153275,2812.782580,-47038.263577
10696.421111,-3108.864956,-1332.370696,-88254.201370
10696.424319,12435.459826,-6809.894666,-85802.695776
10696.427527,11103.089130,3404.947333,-80440.027290
10696.430735,-1480.411884,6957.935855,-65577.774629
10696.433943,2960.823768,4589.276840,-69867.909418
10696.437151,-2812.782580,6957.935855,-84117.285680
10696.440359,-2516.700203,4145.153275,-93157.212557
10696.443567,11695.253884,-1332.370696,-88254.201370
10696.446775,-6661.853478,5329.482782,-77988.521696
10696.449983,-5625.565159,2960.823768,-84576.942979
10696.453191,4293.194464,-6513.812290,-100818.167537
10696.456399,-12287.418637,-1332.370696,-93310.431656
10696.459607,-4441.235652,1036.288319,-80746.465489
10696.462789,2664.741391,1184.329507,-82891.532884
10696.465971,-21169.889941,13027.624579,-78907.836294
10696.469152,-13471.748144,2812.782580,-96068.375449
10696.472334,4885.359217,-6661.853478,-89786.392366
10696.475516,-3849.070898,11843.295072,-40449.842294
10696.478698,3108.864956,28127.825796,-20684.578446
10696.481880,6365.771101,7846.182985,-67416.403824
10696.485061,-296.082377,6365.771101,-75843.454302
10696.488243,-8734.430116,4885.359217,-99745.633840
10696.491425,-3552.988522,8882.471304,-86415.572174
10696.494607,-3997.112087,14063.912898,-60981.201641
10696.497789,-3849.070898,11991.336260,-62819.830836
10696.500970,-11103.089130,7550.100608,-65577.774629
10696.504152,-16432.571912,8586.388927,-75230.577904
10696.507334,-5181.441594,3849.070898,-84270.504780
10696.510516,-8882.471304,8142.265362,-85802.695776
10696.513698,-7846.182985,11843.295072,-83964.066581
10696.516879,-5773.606348,9326.594869,-80899.684589
10696.520061,-3997.112087,7846.182985,-78294.959896
10696.523243,-8734.430116,9326.594869,-67876.061123
10696.526425,3256.906145,5773.606348,-66343.870127
10696.529607,444.123565,10807.006753,-68948.594820
10696.532788,-5625.565159,16580.613101,-74617.701505
10696.535970,-5181.441594,2072.576638,-102350.358533
10696.539152,-3108.864956,-6809.894666,-108019.465218
10696.542334,-740.205942,-5033.400406,-109704.875314
10696.545516,-2072.576638,4589.276840,-68335.718422
10696.548697,-2960.823768,11991.336260,-45506.072581
10696.551879,5329.482782,0.000000,-68948.594820
10696.555061,5181.441594,-5773.606348,-92237.897959
10696.558243,-3256.906145,-148.041188,-85189.819378
10696.561425,4737.318029,148.041188,-83197.971083
10696.564587,5181.441594,10807.006753,-61594.078039
10696.567749,2812.782580,9178.553681,-63126.269035
10696.570912,5329.482782,-592.164754,-84576.942979
10696.574074,-5921.647536,740.205942,-84883.381178
10696.577236,1036.288319,-1184.329507,-81052.903688
10696.580399,4441.235652,-2664.741391,-81359.341888
10696.583561,-2516.700203,-1480.411884,-75230.577904
10696.586724,-6069.688724,7846.182985,-70327.566716
10696.589886,5773.606348,-1776.494261,-73851.606007
10696.593048,14952.160028,-444.123565,-72012.976812
10696.596211,9326.594869,-1480.411884,-59295.791545
10696.599373,-740.205942,20725.766376,-29724.505322
10696.602535,-12879.583391,20873.807564,-50255.864669
10696.605698,-4885.359217,3552.988522,-114607.886501
10696.608860,-8290.306550,-5181.441594,-130542.672859
10696.612023,-15396.283594,13323.706956,-74924.139704
10696.615185,-14508.036463,11991.336260,-64964.898230
10696.618347,-1924.535449,16728.654289,-50715.521968
10696.621510,-15840.407159,10362.883188,-78294.959896
10696.624672,-7994.224174,-148.041188,-100358.510238
10696.627834,-3701.029710,2812.782580,-81512.560987
10696.630997,-11399.171507,14211.954086,-61900.516238
10696.634159,-10658.965565,13471.748144,-66803.527426
10696.637322,-3552.988522,10510.924376,-84576.942979
10696.640484,-11843.295072,4885.359217,-89326.735067
10696.643646,1776.494261,10214.842000,-72625.853210
10696.646809,-7994.224174,16136.489536,-47804.359075
10696.649971,1332.370696,14359.995275,-52094.493864
10696.653133,11547.212695,5921.647536,-55005.656756
10696.656296,4737.318029,8734.430116,-64505.240932
10696.659458,-11843.295072,9030.512492,-78601.398095
10696.662621,6661.853478,-9030.512492,-103116.454031
10696.665769,-5773.606348,-1480.411884,-93923.308055
10696.668917,-7402.059420,9918.759623,-66037.431928
10696.672065,6069.688724,6217.729913,-66190.651027
10696.675213,1628.453072,3997.112087,-70174.347617
10696.678361,-4145.153275,1184.329507,-82431.875585
10696.681509,148.041188,-888.247130,-85649.476676
10696.684657,3997.112087,592.164754,-79367.493593
10696.687805,3701.029710,7105.977043,-67569.622924
10696.690954,10658.965565,3701.029710,-66190.651027
10696.694102,2368.659014,1924.535449,-68488.937521
10696.697250,-2664.741391,-1480.411884,-73238.729609
10696.700398,7402.059420,-2960.823768,-74770.920605
10696.703546,-2960.823768,3404.947333,-75996.673402
10696.706694,-296.082377,3849.070898,-82585.094684
10696.709842,2368.659014,-1776.494261,-80133.589091
10696.712990,-9326.594869,11103.089130,-79520.712692
10696.716138,-16432.571912,2368.659014,-88100.982270
10696.719287,-4293.194464,-3256.906145,-86875.229473
10696.722435,-2516.700203,13619.789333,-50409.083768
10696.725583,888.247130,19837.519246,-32329.230016
10696.728731,7254.018232,14359.995275,-36925.803004
10696.731879,-3552.988522,8290.306550,-67722.842023
10696.735027,-6661.853478,4293.194464,-90399.268764
10696.738175,-5773.606348,7105.977043,-84576.942979
10696.741323,-2516.700203,17024.736666,-68182.499322
10696.744471,-5329.482782,14952.160028,-64658.460031
10696.747620,-6217.729913,3108.864956,-77222.426198
10696.750768,-11103.089130,7402.059420,-79980.369991
10696.753916,592.164754,3849.070898,-74464.482406
10696.757064,-4885.359217,10658.965565,-65271.336430
10696.760212,-10807.006753,16580.613101,-73391.948708
10696.763360,-9770.718434,16284.530724,-80133.589091
10696.766551,-6069.688724,5625.565159,-79367.493593
10696.769742,-4441.235652,7254.018232,-91012.145162
10696.772933,-9326.594869,11991.336260,-85189.819378
10696.776124,-21317.931130,7402.059420,-89939.611465
10696.779315,-4885.359217,-3701.029710,-97294.128246
10696.782506,6365.771101,-10510.924376,-105874.397824
10696.785697,-2368.659014,1332.370696,-70634.004916
10696.788888,-3552.988522,7105.977043,-44433.538884
10696.792079,-3849.070898,6957.935855,-59908.667944
10696.795270,4737.318029,-1776.494261,-86722.010374
10696.798461,14656.077652,-4589.276840,-89326.735067
10696.801652,3256.906145,-1480.411884,-85189.819378
10696.804843,-740.205942,6365.771101,-65577.774629
10696.808034,7254.018232,11991.336260,-55771.752254
10696.811225,5921.647536,4145.153275,-72166.195912
10696.814416,-3256.906145,4293.194464,-87181.667672
10696.817607,6217.729913,3256.906145,-88713.858668
10696.820798,8290.306550,-6957.935855,-82585.094684
10696.823989,-3701.029710,4589.276840,-71859.757712
10696.827180,0.000000,4589.276840,-74311.263306
10696.830371,-1036.288319,1628.453072,-89633.173266
10696.833562,-20873.807564,3256.906145,-93157.212557
10696.836753,-4885.359217,-3108.864956,-89020.296868
10696.839944,4589.276840,4589.276840,-63279.488135
10696.843135,-2812.782580,5921.647536,-67569.622924
10696.846326,-592.164754,17912.983796,-36772.583904
10696.849517,4441.235652,14359.995275,-47344.701776
10696.852708,-3701.029710,5181.441594,-84117.285680
10696.855899,-7105.977043,6809.894666,-94229.746254
10696.859090,-3108.864956,5329.482782,-88560.639569
10696.862281,2220.617826,15692.365970,-71706.538613
10696.865472,-9030.512492,10807.006753,-65884.212828
10696.868698,-14508.036463,8290.306550,-74464.482406
10696.871923,-8438.347739,8142.265362,-82431.875585
10696.875149,-6513.812290,1480.411884,-83810.847481
10696.878374,-11399.171507,9326.594869,-80593.246390
10696.881600,-11547.212695,16284.530724,-71400.100414
10696.884826,-3552.988522,12731.542202,-70327.566716
10696.888051,-9326.594869,5329.482782,-74311.263306
10696.891277,5773.606348,6661.853478,-75230.577904
10696.894502,-3552.988522,9178.553681,-68795.375720
10696.897728,-6661.853478,14952.160028,-64352.021832
10696.900954,-5921.647536,3849.070898,-85343.038477
10696.904179,2960.823768,-14063.912898,-117672.268493
10696.907405,-5477.523971,-5477.523971,-95455.499051
10696.910630,-4293.194464,8882.471304,-48570.454573
10696.913856,-4293.194464,10362.883188,-43514.224286
10696.917082,-148.041188,8586.388927,-54699.218557
10696.920307,3552.988522,-3849.070898,-82891.532884
10696.923533,-2812.782580,-4145.153275,-88254.201370
10696.926758,-9474.636058,3849.070898,-67876.061123
10696.929984,10807.006753,4589.276840,-57916.819649
10696.933209,6957.935855,10214.842000,-56384.628653
10696.936435,-3108.864956,5921.647536,-67569.622924
10696.939661,5625.565159,-3552.988522,-77835.302597
10696.942886,-6365.771101,-4441.235652,-71706.538613
10696.946112,9770.718434,2960.823768,-59602.229744
10696.949337,3404.947333,2960.823768,-58070.038748
10696.952563,3256.906145,2516.700203,-65730.993728
10696.955789,13471.748144,592.164754,-66650.308326
10696.959014,3552.988522,14359.995275,-51021.960167
10696.962240,-22650.301825,24722.878463,-60981.201641
10696.965465,-14063.912898,8142.265362,-112156.380907
10696.968691,-5329.482782,-2664.741391,-130695.891959
10696.971893,-11103.089130,1184.329507,-119204.459489
10696.975095,-10510.924376,11547.212695,-70940.443115
10696.978297,-9030.512492,16728.654289,-46731.825378
10696.981499,-6809.894666,6513.812290,-64505.240932
10696.984701,3701.029710,1036.288319,-86722.010374
10696.987903,-4589.276840,888.247130,-84730.162079
10696.991105,-14804.118840,0.000000,-78907.836294
10696.994307,-1036.288319,11547.212695,-64045.583633
10696.997509,1776.494261,11991.336260,-60521.544342
10697.000711,-3701.029710,14656.077652,-60827.982541
10697.003913,-1776.494261,14656.077652,-69101.813920
10697.007115,-3849.070898,11695.253884,-70327.566716
10697.010317,2664.741391,16876.695478,-59295.791545
10697.013520,-740.205942,12879.583391,-76456.330700
10697.016722,-24870.919651,5181.441594,-102656.796732
10697.019924,-6661.853478,-3108.864956,-110777.409011
10697.023126,10362.883188,-9326.594869,-78448.178995
10697.026328,-4441.235652,11251.130318,-38304.774900
10697.029530,-8290.306550,12287.418637,-45659.291681
10697.032732,-1776.494261,2220.617826,-67876.061123
10697.035934,4589.276840,-5329.482782,-86109.133975
10697.039136,8734.430116,-740.205942,-87028.448573
10697.042338,3552.988522,-1184.329507,-73085.510509
10697.045540,-11399.171507,6957.935855,-52094.493864
10697.048742,592.164754,16136.489536,-55312.094956
10697.051944,11843.295072,5921.647536,-75996.673402
10697.055146,2368.659014,-3108.864956,-95455.499051
10697.058348,6513.812290,-2664.741391,-77682.083497
10697.061550,-3701.029710,5181.441594,-60981.201641
10697.064752,-3849.070898,592.164754,-77222.426198
10697.067954,-1924.535449,4145.153275,-86109.133975
10697.071156,-1628.453072,-5181.441594,-96528.032748
10697.074392,7698.141797,3404.947333,-65577.774629
10697.077627,4293.194464,17172.777854,-42594.909689
10697.080862,-24870.919651,16580.613101,-65730.993728
10697.084098,-19245.354492,19541.436869,-69561.471218
10697.087333,-5033.400406,2072.576638,-119970.554987
10697.090568,-12731.542202,-3997.112087,-120123.774086
10697.093804,-6217.729913,14804.118840,-71706.538613
10697.097039,-5033.400406,14656.077652,-51481.617466
10697.100275,-7550.100608,5773.606348,-63432.707234
10697.103510,-11547.212695,15248.242405,-67722.842023
10697.106745,-2516.700203,5477.523971,-81818.999186
10697.109981,-9030.512492,6069.688724,-80899.684589
10697.113216,-6661.853478,12139.377449,-76915.987999
10697.116451,4589.276840,7254.018232,-82125.437386
10697.119687,-14211.954086,11843.295072,-82585.094684
10697.122922,-10214.842000,9918.759623,-85343.038477
10697.126158,-7105.977043,8290.306550,-81665.780087
10697.129393,-7105.977043,6069.688724,-72472.634111
10697.132628,5773.606348,7254.018232,-62053.735338
10697.135864,148.041188,11843.295072,-56384.628653
10697.139099,-14063.912898,6809.894666,-82585.094684
10697.142334,4589.276840,-3404.947333,-97600.566445
10697.145570,-6809.894666,-8882.471304,-120583.431385
10697.148805,-10658.965565,2812.782580,-83351.190182
10697.152041,6809.894666,7105.977043,-52860.589362
10697.155276,-3552.988522,148.041188,-58989.353346
10697.158511,-1924.535449,-1480.411884,-75996.673402
10697.161747,-2812.782580,2368.659014,-85496.257577
10697.164982,-888.247130,-4885.359217,-85649.476676
10697.168217,-1036.288319,5033.400406,-61900.516238
10697.171453,13027.624579,9178.553681,-54392.780358
10697.174688,4293.194464,-2664.741391,-70021.128517
10697.177950,444.123565,-2664.741391,-72625.853210
10697.181212,7402.059420,-2664.741391,-69101.813920
10697.184475,4293.194464,0.000000,-66343.870127
10697.187737,10214.842000,5773.606348,-64198.802732
10697.190999,7846.182985,13175.665768,-74617.701505
10697.194261,-27535.661042,8586.388927,-89786.392366
10697.197523,-17024.736666,5329.482782,-94382.965354
10697.200785,-2516.700203,-5181.441594,-108325.903417
10697.204048,-6661.853478,11251.130318,-69101.813920
10697.207310,4293.194464,17912.983796,-36619.364804
10697.210572,-10362.883188,7698.141797,-56691.066852
10697.213834,-13175.665768,7254.018232,-88407.420469
10697.217096,-2072.576638,3701.029710,-88560.639569
10697.220358,2220.617826,3256.906145,-93310.431656
10697.223620,-7402.059420,10362.883188,-73545.167808
10697.226883,-3256.906145,12879.583391,-67263.184724
10697.230145,-11547.212695,3997.112087,-81206.122788
10697.233407,-8586.388927,9622.677246,-80593.246390
10697.236669,-7254.018232,14211.954086,-80440.027290
10697.239931,-1924.535449,7550.100608,-78448.178995
10697.243193,-15988.448347,8882.471304,-63279.488135
10697.246456,10066.800811,12139.377449,-57916.819649
10697.249718,2812.782580,10362.883188,-64198.802732
10697.252980,-13915.871710,9918.759623,-84883.381178
10697.256208,-4293.194464,296.082377,-85955.914876
10697.259442,4589.276840,-13175.665768,-104955.083226
10697.262676,-296.082377,-296.082377,-75230.577904
10697.265910,2516.700203,7402.059420,-47651.139976
10697.269144,-4145.153275,7698.141797,-58836.134246
10697.272378,5477.523971,-3256.906145,-81052.903688
10697.275612,2812.782580,-3108.864956,-82431.875585
10697.278846,444.123565,2516.700203,-82738.313784
10697.282080,-5477.523971,5773.606348,-70021.128517
10697.285314,-1036.288319,1628.453072,-74770.920605
10697.288547,-2664.741391,3849.070898,-79214.274493
10697.291781,-2664.741391,4145.153275,-86568.791274
10697.295015,-6069.688724,-8438.347739,-88254.201370
10697.298249,-6809.894666,-4885.359217,-79214.274493
10697.301483,888.247130,4737.318029,-70174.347617
10697.304717,10955.047942,-2368.659014,-71859.757712
10697.307951,-4441.235652,13471.748144,-60827.982541
10697.311185,-14804.118840,22502.260637,-56078.190454
10697.314419,-21762.054695,6217.729913,-88254.201370
10697.317653,-6957.935855,-3701.029710,-113382.133704
10697.320887,-1628.453072,8438.347739,-75996.673402
10697.324121,5329.482782,18209.066173,-32942.106414
10697.327355,-13027.624579,17172.777854,-42901.347888
10697.330589,-15988.448347,11547.212695,-58223.257848
10697.333823,-592.164754,-3256.906145,-94382.965354
10697.337056,-740.205942,6957.935855,-82431.875585
10697.340290,4885.359217,9622.677246,-60827.982541
10697.343524,-4293.194464,7402.059420,-58682.915147
10697.346758,-10955.047942,7994.224174,-65271.336430
10697.349992,3108.864956,5033.400406,-68335.718422
10697.353226,-2664.741391,18061.024985,-56997.505051
10697.356460,-7402.059420,18061.024985,-59908.667944
10697.359720,-7698.141797,7698.141797,-85496.257577
10697.362980,-8438.347739,6513.812290,-91625.021561
10697.366240,6809.894666,1628.453072,-83351.190182
10697.369500,20281.642811,-1332.370696,-63126.269035
10697.372760,1480.411884,17024.736666,-43361.005187
10697.376019,-592.164754,9326.594869,-67876.061123
10697.379279,-3552.988522,-6069.688724,-112003.161808
10697.382539,-12139.377449,-4885.359217,-117212.611194
10697.385799,-1776.494261,-1628.453072,-95149.060852
10697.389059,7550.100608,1776.494261,-72472.634111
10697.392319,-11547.212695,7994.224174,-68795.375720
10697.395579,-8438.347739,7994.224174,-81972.218286
10697.398839,-1776.494261,-7402.059420,-99745.633840
10697.402099,7105.977043,5477.523971,-81206.122788
10697.405359,10362.883188,7402.059420,-70634.004916
10697.408619,5033.400406,2368.659014,-66956.746525
10697.411878,-5921.647536,-1628.453072,-80440.027290
10697.415138,740.205942,-5181.441594,-91318.583362
10697.418398,6069.688724,2960.823768,-87028.448573
10697.421658,-14656.077652,9178.553681,-72012.976812
10697.424918,-13175.665768,5033.400406,-79367.493593
10697.428178,-3552.988522,-3108.864956,-84883.381178
10697.431438,-1480.411884,11103.089130,-56078.190454
10697.434698,1776.494261,23390.507767,-39070.870398
10697.437958,-4145.153275,11695.253884,-70174.347617
10697.441218,-8290.306550,9474.636058,-73698.386908
10697.444477,-6661.853478,6069.688724,-97753.785545
10697.447737,-1332.370696,6217.729913,-91318.583362
10697.450997,1036.288319,14656.077652,-65271.336430
10697.454257,-8882.471304,9770.718434,-64045.583633
10697.457517,-16284.530724,4885.359217,-80899.684589
10697.460777,-14656.077652,5625.565159,-86415.572174
10697.464009,-1480.411884,10066.800811,-90858.926063
10697.467241,-11991.336260,11399.171507,-86415.572174
10697.470473,-8142.265362,17320.819043,-74311.263306
10697.473705,-6069.688724,10955.047942,-68795.375720
10697.476938,-7846.182985,3849.070898,-72625.853210
10697.480170,3701.029710,592.164754,-73698.386908
10697.483402,10214.842000,5477.523971,-58529.696047
10697.486634,-6365.771101,10807.006753,-56078.190454
10697.489866,7254.018232,-3552.988522,-83044.751983
10697.493098,-3701.029710,-7550.100608,-103269.673130
10697.496330,-3404.947333,-4293.194464,-99745.633840
10697.499562,4885.359217,4885.359217,-73238.729609
10697.502794,4589.276840,5921.647536,-55618.533155
10697.506027,1184.329507,7550.100608,-59755.448844
10697.509259,-2812.782580,3701.029710,-80746.465489
10697.512491,-4293.194464,-4293.194464,-102350.358533
10697.515723,-3552.988522,-3256.906145,-96068.375449
10697.518955,6513.812290,5329.482782,-65424.555529
10697.522187,5329.482782,444.123565,-60981.201641
10697.525419,-5033.400406,-2812.782580,-72472.634111
10697.528651,6217.729913,-4441.235652,-79827.150892
10697.531883,7254.018232,-888.247130,-69867.909418
10697.535116,-3997.112087,13767.830521,-60981.201641
10697.538348,-15396.283594,5625.565159,-70480.785816
10697.541580,2664.741391,-10658.965565,-88867.077768
10697.544812,3552.988522,7402.059420,-52400.932063
10697.548044,2220.617826,27683.702231,-19152.387450
10697.551276,6513.812290,15248.242405,-52554.151163
10697.554508,-5329.482782,8142.265362,-55924.971354
10697.557740,-8438.347739,2812.782580,-93463.650756
10697.560972,-1924.535449,9770.718434,-93770.088955
10697.564205,-1332.370696,13175.665768,-70174.347617
10697.567415,-4885.359217,7994.224174,-68488.937521
10697.570625,-10066.800811,11399.171507,-72472.634111
10697.573834,-12435.459826,10362.883188,-63585.926334
10697.577044,-5329.482782,6661.853478,-76149.892501
10697.580254,-6069.688724,16876.695478,-73238.729609
10697.583464,-1184.329507,16432.571912,-74004.825107
10697.586674,-9918.759623,8734.430116,-88867.077768
10697.589884,-20429.683999,9030.512492,-80899.684589
10697.593094,-2072.576638,-740.205942,-89479.954166
10697.596304,14211.954086,-9474.636058,-81206.122788
10697.599514,740.205942,14359.995275,-50715.521968
10697.602724,1628.453072,8586.388927,-53013.808462
10697.605934,-1924.535449,-5477.523971,-94536.184453
10697.609144,-4293.194464,-3701.029710,-94382.965354
10697.612354,1776.494261,-3849.070898,-101890.701234
10697.615564,5329.482782,1036.288319,-82431.875585
10697.618774,-2516.700203,8734.430116,-60215.106143
10697.621984,-4589.276840,8586.388927,-64811.679131
10697.625194,-5181.441594,740.205942,-83044.751983
10697.628404,-1776.494261,1628.453072,-87028.448573
10697.631614,4885.359217,-2812.782580,-87334.886772
10697.634824,-7105.977043,-2516.700203,-72166.195912
10697.638034,592.164754,-888.247130,-68948.594820
10697.641244,-2072.576638,-1480.411884,-76149.892501
10697.644454,8734.430116,444.123565,-83197.971083
10697.647664,13323.706956,5033.400406,-65118.117330
10697.650874,-2812.782580,20873.807564,-47038.263577
10697.654084,-26351.331535,13915.871710,-72932.291410
10697.657294,-11547.212695,6217.729913,-118744.802190
10697.660504,-7105.977043,740.205942,-116140.077497
10697.663714,-11843.295072,13323.706956,-62973.049936
10697.666924,-14359.995275,21910.095883,-56231.409553
10697.670164,-14063.912898,17320.819043,-59602.229744
10697.673405,-13027.624579,2960.823768,-93616.869856
10697.676645,-2960.823768,-592.164754,-90092.830565
10697.679885,-6069.688724,-3701.029710,-70327.566716
10697.683125,-18949.272115,2368.659014,-75077.358804
10697.686365,-4145.153275,15544.324782,-51175.179266
10697.689605,-1184.329507,10658.965565,-53779.903960
10697.692846,3701.029710,10955.047942,-64045.583633
10697.696086,-592.164754,11843.295072,-62360.173537
10697.699326,-3552.988522,3997.112087,-62053.735338
10697.702566,10066.800811,5033.400406,-53933.123059
10697.705806,16136.489536,11251.130318,-42901.347888
10697.709047,-2664.741391,7105.977043,-63585.926334
10697.712287,148.041188,-592.164754,-103422.892230
10697.715527,-8438.347739,-6217.729913,-113995.010102
10697.718767,-4441.235652,-5477.523971,-104801.864126
10697.722007,1776.494261,8290.306550,-73238.729609
10697.725247,2664.741391,9622.677246,-60368.325242
10697.728488,-7105.977043,-740.205942,-81972.218286
10697.731728,-888.247130,2516.700203,-91931.459760
10697.734968,-4441.235652,-2516.700203,-90858.926063
10697.738208,6069.688724,-5181.441594,-93003.993457
10697.741448,740.205942,3256.906145,-80286.808190
10697.744688,-9770.718434,-1776.494261,-81359.341888
10697.747929,-5921.647536,-7105.977043,-81818.999186
10697.751169,-9622.677246,444.123565,-74158.044206
10697.754409,9326.594869,-3108.864956,-84730.162079
10697.757649,9178.553681,1332.370696,-70021.128517
10697.760889,-13767.830521,23094.425390,-49030.111872
10697.764130,-27239.578666,12139.377449,-75843.454302
10697.767370,-8882.471304,-2072.576638,-114454.667401
10697.770610,-3256.906145,6513.812290,-86722.010374
10697.773875,-6069.688724,1924.535449,-87334.886772
10697.777140,-8734.430116,25167.002028,-35240.392908
10697.780404,-7550.100608,16432.571912,-45965.729880
10697.783669,-2664.741391,-3997.112087,-90092.830565
10697.786934,-1036.288319,11547.212695,-85955.914876
10697.790199,-148.041188,7402.059420,-69561.471218
10697.793464,-3701.029710,10214.842000,-68029.280222
10697.796728,-10214.842000,13471.748144,-74311.263306
10697.799993,-1184.329507,19097.313304,-80133.589091
10697.803258,-8290.306550,11251.130318,-86875.229473
10697.806523,-13175.665768,14656.077652,-86415.572174
10697.809788,-15100.201217,9770.718434,-83810.847481
10697.813053,-7698.141797,-12139.377449,-89479.954166
10697.816317,12287.418637,6217.729913,-57610.381450
10697.819582,6661.853478,16580.613101,-40603.061394
10697.822847,-148.041188,-3108.864956,-82125.437386
10697.826112,-9178.553681,-3701.029710,-114914.324700
10697.829377,-3552.988522,-8142.265362,-106180.836023
10697.832642,5477.523971,-592.164754,-89786.392366
10697.835906,6513.812290,11251.130318,-61134.420740
10697.839171,-2220.617826,6069.688724,-60674.763442
10697.842436,-4145.153275,4589.276840,-75690.235202
10697.845701,-592.164754,-3404.947333,-87488.105872
10697.848966,3997.112087,-4441.235652,-94076.527154
10697.852230,4589.276840,-3108.864956,-79061.055394
10697.855495,-2812.782580,3701.029710,-55158.875856
10697.858760,2072.576638,-5477.523971,-61747.297139
10697.862025,-592.164754,592.164754,-72012.976812
10697.865290,11695.253884,1332.370696,-72932.291410
10697.868555,7846.182985,-5773.606348,-81052.903688
10697.871819,-740.205942,7846.182985,-56231.409553
10697.875084,1924.535449,27831.743419,-33708.201912
10697.878322,-2664.741391,13619.789333,-62666.611736
10697.881559,-3256.906145,10807.006753,-110317.751712
10697.884797,-592.164754,3552.988522,-101737.482134
10697.888034,-8586.388927,4737.318029,-98213.442844
10697.891272,-6365.771101,12287.418637,-72472.634111
10697.894509,-2812.782580,16136.489536,-66650.308326
10697.897747,-14656.077652,6809.894666,-88713.858668
10697.900985,-13471.748144,3997.112087,-103729.330429
10697.904222,-8142.265362,10066.800811,-96834.470947
10697.907460,-14804.118840,7402.059420,-93923.308055
10697.910697,-3108.864956,14804.118840,-84270.504780
10697.913935,-12287.418637,9030.512492,-88100.982270
10697.917172,-7402.059420,8882.471304,-85649.476676
10697.920410,-8586.388927,8142.265362,-86109.133975
10697.923647,-3701.029710,10362.883188,-75383.797003
10697.926885,-13471.748144,-296.082377,-91165.364262
10697.930122,7994.224174,-9474.636058,-100511.729338
10697.933360,5625.565159,-7105.977043,-73545.167808
10697.936597,-5033.400406,6069.688724,-35546.831107
10697.939835,1628.453072,13915.871710,-42748.128788
10697.943073,10955.047942,8734.430116,-52400.932063
10697.946310,5921.647536,-7550.100608,-82738.313784
10697.949548,6217.729913,4589.276840,-75690.235202
10697.952785,7846.182985,6069.688724,-58989.353346
10697.956023,15100.201217,-740.205942,-57150.724151
10697.959260,14211.954086,6365.771101,-47651.139976
10697.962498,7846.182985,0.000000,-59908.667944
10697.965735,1776.494261,-2072.576638,-68642.156621
10697.968973,-2516.700203,3108.864956,-74924.139704
10697.972210,12583.501014,-2072.576638,-85189.819378
10697.975448,7254.018232,8142.265362,-87488.105872
10697.978685,-2960.823768,20281.642811,-63739.145434
10697.981901,-19985.560434,15100.201217,-81972.218286
10697.985117,-19689.478057,4737.318029,-119357.678588
10697.988333,-10066.800811,8438.347739,-116293.296596
10697.991549,-10362.883188,6217.729913,-83504.409282
10697.994764,-17912.983796,11991.336260,-82891.532884
10697.997980,-16876.695478,12139.377449,-71553.319513
10698.001196,-9622.677246,4145.153275,-80440.027290
10698.004412,-2960.823768,7846.182985,-80440.027290
10698.007628,-888.247130,-2368.659014,-80133.589091
10698.010843,-7105.977043,3701.029710,-88867.077768
10698.014059,-14804.118840,18209.066173,-58989.353346
10698.017275,10362.883188,18209.066173,-61594.078039
10698.020491,-2220.617826,2664.741391,-86262.353075
10698.023707,-6957.935855,14063.912898,-72779.072310
10698.026922,-12139.377449,20281.642811,-53933.123059
10698.030138,-7105.977043,12879.583391,-56844.285952
10698.033354,-4145.153275,-888.247130,-89939.611465
10698.036570,12731.542202,-11103.089130,-104648.645027
10698.039786,-6513.812290,-5181.441594,-64198.802732
10698.043001,592.164754,11103.089130,-30950.258119
10698.046217,2664.741391,5477.523971,-53933.123059
10698.049433,5921.647536,2664.741391,-64964.898230
10698.052649,5625.565159,-3849.070898,-83657.628382
10698.055865,2812.782580,1332.370696,-80133.589091
10698.059063,-2812.782580,7846.182985,-67569.622924
10698.062262,6365.771101,6365.771101,-69408.252119
10698.065460,7402.059420,148.041188,-70787.224015
10698.068659,-4589.276840,-3849.070898,-81512.560987
10698.071857,1776.494261,-5181.441594,-74617.701505
10698.075056,-740.205942,-740.205942,-69867.909418
10698.078254,5625.565159,2960.823768,-67263.184724
10698.081453,18653.189738,3404.947333,-74004.825107
10698.084651,2960.823768,5329.482782,-67876.061123
10698.087850,-16876.695478,18061.024985,-54699.218557
10698.091048,-1924.535449,19245.354492,-66803.527426
10698.094247,-5477.523971,8290.306550,-103269.673130
10698.097445,-12287.418637,2220.617826,-113841.791003
10698.100644,-12435.459826,9770.718434,-79827.150892
10698.103842,-12435.459826,9622.677246,-75843.454302
10698.107041,-9770.718434,18061.024985,-58223.257848
10698.110239,-7105.977043,9474.636058,-72166.195912
10698.113438,-11251.130318,-4589.276840,-102963.234931
10698.116636,-14508.036463,592.164754,-91471.802461
10698.119835,-13027.624579,12731.542202,-93157.212557
10698.123033,-6217.729913,11695.253884,-70787.224015
10698.126232,-6069.688724,16876.695478,-63892.364533
10698.129430,-12583.501014,8438.347739,-72625.853210
10698.132629,-6809.894666,5773.606348,-75690.235202
10698.135827,4441.235652,15396.283594,-60368.325242
10698.139026,740.205942,13915.871710,-58223.257848
10698.142224,-2664.741391,-3108.864956,-97140.909146
10698.145423,-6957.935855,-4885.359217,-112309.600007
10698.148621,-3256.906145,-6069.688724,-89326.735067
10698.151820,-740.205942,8734.430116,-53779.903960
10698.155018,6809.894666,15248.242405,-46118.948980
10698.158217,-1036.288319,3256.906145,-59295.791545
10698.161402,-7254.018232,-5329.482782,-74311.263306
10698.164587,13767.830521,6513.812290,-71093.662214
10698.167773,14656.077652,-3108.864956,-65271.336430
10698.170958,7254.018232,740.205942,-61440.858940
10698.174143,-444.123565,1036.288319,-62053.735338
10698.177329,3701.029710,-3256.906145,-66956.746525
10698.180514,10955.047942,-5773.606348,-66037.431928
10698.183699,9918.759623,12879.583391,-67263.184724
10698.186884,-28868.031738,9770.718434,-85036.600278
10698.190070,-13175.665768,6513.812290,-99132.757441
10698.193255,-4441.235652,1776.494261,-108632.341616
10698.196440,-3701.029710,11843.295072,-76915.987999
10698.199626,444.123565,18949.272115,-41675.595091
10698.202811,-11399.171507,11399.171507,-47804.359075
10698.205996,-13471.748144,1480.411884,-82431.875585
10698.209181,2368.659014,9770.718434,-99745.633840
10698.212367,12879.583391,4145.153275,-91165.364262
10698.215552,-4441.235652,1480.411884,-76303.111601
10698.218737,-4737.318029,17024.736666,-59755.448844
10698.221923,-6809.894666,12139.377449,-66497.089226
10698.225108,-7105.977043,10658.965565,-79673.931792
10698.228293,-592.164754,13323.706956,-73391.948708
10698.231478,-5033.400406,13767.830521,-77835.302597
10698.234664,-16580.613101,11399.171507,-80286.808190
10698.237849,-17468.860231,10362.883188,-87488.105872
10698.241034,-888.247130,-7105.977043,-110317.751712
10698.244220,10658.965565,-11103.089130,-99898.852939
10698.247405,-6513.812290,-6809.894666,-94536.184453
10698.250590,-6365.771101,3849.070898,-48723.673673
10698.253775,-592.164754,10658.965565,-47191.482677
10698.256961,9030.512492,888.247130,-78907.836294
10698.260146,5921.647536,-3997.112087,-92544.336158
10698.263367,-5625.565159,-1332.370696,-72166.195912
10698.266587,-2960.823768,5033.400406,-74311.263306
10698.269807,5181.441594,3256.906145,-68029.280222
10698.273027,4589.276840,-740.205942,-68948.594820
10698.276247,4589.276840,-3552.988522,-67876.061123
10698.279467,-2812.782580,-2960.823768,-64045.583633
10698.282687,14211.954086,444.123565,-61747.297139
10698.285908,3849.070898,9030.512492,-53473.465760
10698.289128,-18061.024985,2220.617826,-79673.931792
10698.292348,-5921.647536,-740.205942,-92084.678860
10698.295568,592.164754,13619.789333,-58682.915147
10698.298788,-3404.947333,25315.043216,-33248.544613
10698.302008,-2960.823768,23242.466579,-31563.134518
10698.305228,-2220.617826,11103.089130,-63585.926334
10698.308449,-14804.118840,-2368.659014,-98826.319242
10698.311669,-7105.977043,6957.935855,-92084.678860
10698.314889,-2812.782580,10066.800811,-64811.679131
10698.318109,-6069.688724,7846.182985,-66803.527426
10698.321329,-17024.736666,6661.853478,-63739.145434
10698.324549,-16432.571912,8586.388927,-74158.044206
10698.327769,-1332.370696,7698.141797,-74617.701505
10698.330990,11103.089130,10807.006753,-67416.403824
10698.334210,-2072.576638,13323.706956,-54392.780358
10698.337430,-19097.313304,17320.819043,-55924.971354
10698.340650,-7550.100608,12139.377449,-65730.993728
10698.343870,-3256.906145,-4293.194464,-100818.167537
10698.347090,10807.006753,-11991.336260,-109091.998915
10698.350310,3108.864956,-296.082377,-58529.696047
10698.353531,-5329.482782,9622.677246,-26660.123330
10698.356751,-740.205942,13323.706956,-34933.954709
10698.359971,11695.253884,7402.059420,-66497.089226
10698.363191,7994.224174,-8142.265362,-92237.897959
10698.366440,-5773.606348,-1776.494261,-79367.493593
10698.369689,2516.700203,12435.459826,-59908.667944
10698.372938,9474.636058,2368.659014,-68029.280222
10698.376187,-888.247130,1776.494261,-76609.549800
10698.379436,-2664.741391,148.041188,-83964.066581
10698.382685,-8586.388927,-4885.359217,-83197.971083
10698.385934,7846.182985,-3701.029710,-72779.072310
10698.389183,3552.988522,9178.553681,-66956.746525
10698.392432,-23982.672521,19837.519246,-69408.252119
10698.395681,-21910.095883,-1776.494261,-104648.645027
10698.398930,-5773.606348,-2516.700203,-100358.510238
10698.402179,-2516.700203,17912.983796,-47344.701776
10698.405428,8438.347739,26203.290347,-18539.511052
10698.408677,-5773.606348,7254.018232,-55771.752254
10698.411926,-19837.519246,5921.647536,-70634.004916
10698.415175,-6069.688724,-888.247130,-96374.813648
10698.418424,2368.659014,10362.883188,-81359.341888
10698.421673,-10066.800811,12287.418637,-58989.353346
10698.424922,-9030.512492,19837.519246,-61287.639840
10698.428171,-10510.924376,14211.954086,-67416.403824
10698.431420,-4145.153275,11103.089130,-90705.706963
10698.434669,-148.041188,14359.995275,-88713.858668
10698.437918,-14359.995275,11399.171507,-74464.482406
10698.441167,-6661.853478,2664.741391,-63892.364533
10698.444416,12731.542202,9178.553681,-55158.875856
10698.447665,7254.018232,14211.954086,-47344.701776
10698.450914,-2664.741391,-5033.400406,-88560.639569
10698.454163,-10807.006753,-6513.812290,-113688.571903
10698.457412,-6809.894666,-3997.112087,-94076.527154
10698.460661,3552.988522,6365.771101,-66343.870127
10698.463910,2960.823768,11103.089130,-60061.887043
10698.467159,-2072.576638,5033.400406,-74770.920605
10698.470431,-7994.224174,-740.205942,-83044.751983
10698.473704,6217.729913,2368.659014,-81052.903688
10698.476976,6365.771101,-4145.153275,-76456.330700
10698.480249,4589.276840,2072.576638,-67416.403824
10698.483522,296.082377,-3404.947333,-72012.976812
10698.486794,-6217.729913,-888.247130,-70634.004916
10698.490067,2220.617826,-2368.659014,-75230.577904
10698.493339,21169.889941,-5477.523971,-77835.302597
10698.496612,-5773.606348,11843.295072,-56537.847752
10698.499885,-12139.377449,28868.031738,-41522.375992
10698.503157,-296.082377,29608.237680,-35546.831107
10698.506430,-3404.947333,10510.924376,-85343.038477
10698.509703,444.123565,-3552.988522,-116599.734796
10698.512975,-10066.800811,6069.688724,-87028.448573
10698.516248,-11547.212695,16136.489536,-55312.094956
10698.519520,-6809.894666,15988.448347,-62666.611736
10698.522793,4293.194464,12287.418637,-63585.926334
10698.526066,-9178.553681,7846.182985,-89939.611465
10698.529338,-15396.283594,9178.553681,-102043.920334
10698.532611,-10807.006753,13027.624579,-89939.611465
10698.535884,-8142.265362,11251.130318,-83964.066581
10698.539156,-3997.112087,15100.201217,-83044.751983
10698.542429,-11991.336260,12879.583391,-80286.808190
10698.545701,-14952.160028,9326.594869,-87334.886772
10698.548974,-5181.441594,-5329.482782,-106487.274222
10698.552247,8438.347739,-12583.501014,-104035.768628
10698.555519,-1036.288319,-148.041188,-62666.611736
10698.558792,-5625.565159,148.041188,-64964.898230
10698.562064,740.205942,5773.606348,-56384.628653
10698.565337,6957.935855,4293.194464,-67569.622924
10698.568610,11547.212695,296.082377,-73391.948708
10698.571882,2368.659014,1036.288319,-68948.594820
10698.575174,3701.029710,3849.070898,-72012.976812
10698.578466,20133.601622,2960.823768,-73545.167808
10698.581758,5033.400406,0.000000,-67263.184724
10698.585049,-2664.741391,1332.370696,-65730.993728
10698.588341,592.164754,2664.741391,-69867.909418
10698.591633,3849.070898,-10510.924376,-88254.201370
10698.594925,15840.407159,-3552.988522,-89479.954166
10698.598216,3552.988522,15248.242405,-61134.420740
10698.601508,-19837.519246,27387.619854,-44893.196183
10698.604800,-13027.624579,14656.077652,-91318.583362
10698.608092,-10807.006753,3849.070898,-130236.234660
10698.611383,-9326.594869,1332.370696,-99745.633840
10698.614675,-9474.636058,5181.441594,-80133.589091
10698.617967,-9918.759623,16876.695478,-57610.381450
10698.621259,-8438.347739,14656.077652,-85496.257577
10698.624550,-7254.018232,-444.123565,-101737.482134
10698.627842,-11843.295072,6217.729913,-86109.133975
10698.631134,-21910.095883,22354.219448,-78448.178995
10698.634426,-2368.659014,16284.530724,-81359.341888
10698.637717,-7994.224174,9622.677246,-96528.032748
10698.641009,-16432.571912,9622.677246,-92697.555258
10698.644301,-6957.935855,20577.725188,-72779.072310
10698.647593,-23094.425390,12435.459826,-72012.976812
10698.650884,-8882.471304,-8438.347739,-95608.718150
10698.654176,6957.935855,-14656.077652,-116752.953895
10698.657468,-7846.182985,-9770.718434,-94995.841752
10698.660760,-10510.924376,4885.359217,-47804.359075
10698.664051,7698.141797,9030.512492,-36772.583904
10698.667343,12583.501014,2072.576638,-54699.218557
10698.670635,-3552.988522,2072.576638,-65118.117330
10698.673927,5921.647536,-4293.194464,-75230.577904
10698.677218,4293.194464,3552.988522,-70787.224015
10698.680481,15544.324782,0.000000,-63585.926334
10698.683743,7105.977043,4441.235652,-57763.600549
10698.687006,888.247130,-888.247130,-55924.971354
10698.690268,2368.659014,4441.235652,-56384.628653
10698.693531,-1628.453072,-4441.235652,-71400.100414
10698.696793,9622.677246,-7698.141797,-81972.218286
10698.700055,9474.636058,11695.253884,-60827.982541
10698.703318,-9474.636058,21317.931130,-45965.729880
10698.706580,-9622.677246,29756.278868,-31103.477219
10698.709843,1776.494261,16136.489536,-68182.499322
10698.713105,-3552.988522,-5181.441594,-106793.712421
10698.716368,-16284.530724,740.205942,-98519.881043
10698.719630,-10214.842000,11399.171507,-75383.797003
10698.722893,-8882.471304,14804.118840,-67569.622924
10698.726155,-4885.359217,9622.677246,-63892.364533
10698.729418,-7994.224174,12435.459826,-74158.044206
10698.732680,-12435.459826,11399.171507,-84423.723880
10698.735942,-1480.411884,9474.636058,-83657.628382
10698.739205,-3701.029710,11399.171507,-78141.740796
10698.742467,-6365.771101,17616.901420,-78907.836294
10698.745730,-6957.935855,-1480.411884,-91471.802461
10698.748992,12435.459826,-1776.494261,-77528.864398
10698.752255,-3701.029710,13471.748144,-58836.134246
10698.755517,-5033.400406,2072.576638,-88713.858668
10698.758780,-9770.718434,-9474.636058,-119664.116788
10698.762042,-17024.736666,-7105.977043,-122422.060580
10698.765305,-1776.494261,3404.947333,-101431.043935
10698.768567,4589.276840,9474.636058,-68642.156621
10698.771829,-3256.906145,11547.212695,-62666.611736
10698.775092,-3552.988522,2072.576638,-73391.948708
10698.778354,888.247130,-6365.771101,-89020.296868
10698.781617,-3849.070898,-2960.823768,-81665.780087
10698.784900,-2960.823768,-740.205942,-85496.257577
10698.788183,-5921.647536,2220.617826,-73851.606007
10698.791466,3404.947333,-1924.535449,-69255.033019
10698.794749,4293.194464,5625.565159,-71400.100414
10698.798032,-20725.766376,7994.224174,-83197.971083
10698.801315,-32124.937883,7846.182985,-102963.234931
10698.804598,-7846.182985,148.041188,-107866.246118
10698.807881,1776.494261,14508.036463,-61594.078039
10698.811164,-5329.482782,19985.560434,-28498.752526
10698.814447,-2516.700203,8142.265362,-51328.398366
10698.817730,-8882.471304,-296.082377,-79827.150892
10698.821013,-12583.501014,3849.070898,-77835.302597
10698.824296,1776.494261,11547.212695,-81206.122788
10698.827579,-10066.800811,8438.347739,-68182.499322
10698.830862,-11399.171507,21465.972318,-61594.078039
10698.834145,-5477.523971,9030.512492,-78907.836294
10698.837428,-9178.553681,9178.553681,-80440.027290
10698.840711,-7550.100608,14952.160028,-77682.083497
10698.843994,-6809.894666,18357.107362,-73238.729609
10698.847277,-24722.878463,13767.830521,-80286.808190
10698.850560,-6513.812290,-3997.112087,-102503.577632
10698.853843,16876.695478,-16580.613101,-97447.347346
10698.857126,-1628.453072,-4441.235652,-55771.752254
10698.860409,444.123565,8142.265362,-58529.696047
10698.890112,9474.636058,-740.205942,-65730.993728
10698.893412,-8734.430116,-5921.647536,-71553.319513
10698.896712,3701.029710,-5773.606348,-75230.577904
10698.900012,12287.418637,5181.441594,-63739.145434
10698.903313,-2664.741391,11547.212695,-54545.999458
10698.906613,-3256.906145,29312.155303,-21144.235745
10698.909913,8290.306550,11695.253884,-50102.645569
10698.913214,-2812.782580,-2812.782580,-95608.718150
10698.916514,-15100.201217,6069.688724,-96834.470947
10698.919814,-5625.565159,4737.318029,-78601.398095
10698.923114,444.123565,6365.771101,-71093.662214
10698.926415,-7402.059420,10362.883188,-58223.257848
10698.929715,-8882.471304,11991.336260,-64964.898230
10698.933015,-11843.295072,7550.100608,-80440.027290
10698.936316,-4589.276840,8142.265362,-70634.004916
10698.939616,7402.059420,15248.242405,-60368.325242
10698.942916,-14359.995275,18801.230927,-62360.173537
10698.946216,-19541.436869,8142.265362,-79367.493593
10698.949517,10362.883188,-15692.365970,-91931.459760
10698.952817,20133.601622,-5625.565159,-61440.858940
10698.956117,11843.295072,5477.523971,-31563.134518
10698.959418,5921.647536,3256.906145,-50409.083768
10698.962718,4145.153275,5921.647536,-51941.274764
10698.966018,10955.047942,444.123565,-87641.324971
10698.969287,9326.594869,0.000000,-90246.049664
10698.972556,1332.370696,4589.276840,-67876.061123
10698.975825,5921.647536,888.247130,-61747.297139
10698.979094,1776.494261,1776.494261,-71553.319513
10698.982363,2368.659014,148.041188,-64658.460031
10698.985632,2368.659014,296.082377,-68488.937521
10698.988901,6217.729913,-2516.700203,-72625.853210
10698.992170,-16284.530724,-4293.194464,-71246.881314
10698.995439,8734.430116,-7254.018232,-84576.942979
10698.998708,3849.070898,3256.906145,-75230.577904
10699.001977,-8882.471304,11991.336260,-65884.212828
10699.005246,0.000000,30200.402434,-31409.915418
10699.008515,4737.318029,14656.077652,-56537.847752
10699.011784,-12435.459826,444.123565,-95455.499051
10699.015053,-12139.377449,3701.029710,-102963.234931
10699.018322,-7254.018232,9030.512492,-80440.027290
10699.021591,-3997.112087,12731.542202,-73698.386908
10699.024860,-1480.411884,8882.471304,-75077.358804
10699.028129,-15544.324782,14508.036463,-76303.111601
10699.031398,-13619.789333,10807.006753,-78141.740796
10699.034667,-4293.194464,4589.276840,-75230.577904
10699.037936,3552.988522,13915.871710,-69408.252119
10699.041205,-6513.812290,19245.354492,-72779.072310
10699.044474,-14508.036463,12435.459826,-82125.437386
10699.047743,-6365.771101,-2368.659014,-100971.386636
10699.051012,20429.683999,-11547.212695,-95915.156350
10699.054281,7994.224174,-6957.935855,-58836.134246
10699.057550,-4145.153275,6217.729913,-38457.994000
10699.060819,4293.194464,16284.530724,-46425.387179
10699.064088,9326.594869,-1628.453072,-72472.634111
10699.067357,-1776.494261,1480.411884,-88713.858668
10699.070626,-592.164754,4589.276840,-78907.836294
10699.073912,4441.235652,3701.029710,-72166.195912
10699.077198,-5329.482782,3849.070898,-71553.319513
10699.080485,3256.906145,-1332.370696,-72625.853210
10699.083771,-2812.782580,2516.700203,-71400.100414
10699.087058,-888.247130,-740.205942,-73085.510509
10699.090344,9178.553681,-1036.288319,-76456.330700
10699.093630,-20577.725188,7402.059420,-89786.392366
10699.096917,-21465.972318,3997.112087,-106334.055122
10699.100203,-12583.501014,4737.318029,-118591.583090
10699.103490,-8142.265362,15396.283594,-84117.285680
10699.106776,-5773.606348,19689.478057,-43667.443386
10699.110062,-5033.400406,7105.977043,-56844.285952
10699.113349,-12139.377449,-148.041188,-81818.999186
10699.116635,-9770.718434,6513.812290,-80746.465489
10699.119922,4885.359217,5329.482782,-81972.218286
10699.123208,-11547.212695,7846.182985,-73851.606007
10699.126494,-11251.130318,19985.560434,-65118.117330
10699.129781,-5625.565159,8882.471304,-78294.959896
10699.133067,-8734.430116,15248.242405,-73238.729609
10699.136354,-1628.453072,13915.871710,-73085.510509
10699.139640,1036.288319,2812.782580,-74158.044206
10699.142926,7254.018232,8586.388927,-58529.696047
10699.146213,2220.617826,11251.130318,-54086.342159
10699.149499,7402.059420,-9326.594869,-89020.296868
10699.152786,-12731.542202,-12287.418637,-111543.504509
10699.156072,-1924.535449,-1924.535449,-90705.706963
10699.159358,9918.759623,5477.523971,-89020.296868
10699.162645,-2368.659014,9326.594869,-67722.842023
10699.165931,-6809.894666,2664.741391,-73085.510509
10699.169218,-1776.494261,592.164754,-78907.836294
10699.172504,444.123565,4885.359217,-76609.549800
10699.175790,3701.029710,-5773.606348,-80286.808190
10699.179091,296.082377,-6661.853478,-82738.313784
10699.182391,-7402.059420,5329.482782,-78754.617194
10699.185691,-2072.576638,-7105.977043,-76762.768900
10699.188991,9326.594869,-11991.336260,-73238.729609
10699.192292,6069.688724,11695.253884,-46425.387179
10699.195592,-4885.359217,22946.384202,-39070.870398
10699.198892,-6365.771101,29016.072926,-41369.156892
10699.202192,-1628.453072,19393.395680,-64964.898230
10699.205493,1776.494261,-3256.906145,-99132.757441
10699.208793,-8142.265362,2664.741391,-93770.088955
10699.212093,-11399.171507,10955.047942,-64658.460031
10699.215393,-2664.741391,6217.729913,-60061.887043
10699.218694,-7846.182985,9918.759623,-66343.870127
10699.221994,-14656.077652,15840.407159,-66343.870127
10699.225294,-592.164754,9178.553681,-78907.836294
10699.228595,-8438.347739,5773.606348,-76609.549800
10699.231895,2220.617826,12583.501014,-66190.651027
10699.235195,3552.988522,18061.024985,-62973.049936
10699.238495,-6809.894666,19689.478057,-59755.448844
10699.241796,-4293.194464,-1332.370696,-83044.751983
10699.245096,17912.983796,-18209.066173,-103882.549529
10699.248396,-1924.535449,-9474.636058,-76762.768900
10699.251696,2812.782580,4737.318029,-46731.825378
10699.254997,2072.576638,7402.059420,-52400.932063
10699.258297,1628.453072,13471.748144,-54852.437657
10699.261597,4145.153275,-592.164754,-73545.167808
10699.264897,6957.935855,-6957.935855,-86415.572174
10699.268198,-888.247130,7846.182985,-72166.195912
10699.271498,6957.935855,-2368.659014,-66803.527426
10699.274798,4589.276840,-3108.864956,-61134.420740
10699.278098,-9178.553681,7550.100608,-58070.038748
10699.281399,8734.430116,-2812.782580,-66343.870127
10699.284694,18061.024985,-11843.295072,-76915.987999
10699.288005,-1776.494261,15544.324782,-53626.684860
10699.291316,-14063.912898,23834.631332,-59142.572446
10699.294627,-19689.478057,13619.789333,-104035.768628
10699.297938,-9030.512492,16432.571912,-100664.948437
10699.301249,5329.482782,-6365.771101,-113535.352804
10699.304561,-11843.295072,-148.041188,-79367.493593
10699.307872,-13915.871710,14952.160028,-51175.179266
10699.311183,-10955.047942,15248.242405,-75383.797003
10699.314494,-9474.636058,11547.212695,-79367.493593
10699.317805,-11103.089130,7550.100608,-98826.319242
10699.321116,-11547.212695,5625.565159,-99898.852939
10699.324427,-15840.407159,15692.365970,-79673.931792
10699.327738,-740.205942,14063.912898,-66190.651027
10699.331049,-10066.800811,14656.077652,-78448.178995
10699.334360,-22798.343014,16580.613101,-85343.038477
10699.337672,-7846.182985,1036.288319,-98826.319242
10699.340983,9030.512492,-22354.219448,-112769.257306
10699.344294,-9770.718434,-11695.253884,-78754.617194
10699.347605,-444.123565,8438.347739,-44433.538884
10699.350916,5773.606348,5773.606348,-48264.016374
10699.354227,7254.018232,3997.112087,-66037.431928
10699.357538,4885.359217,-1628.453072,-73851.606007
10699.360849,3108.864956,-6957.935855,-77528.864398
10699.364160,2960.823768,12435.459826,-56691.066852
10699.367472,13323.706956,2368.659014,-55005.656756
10699.370783,6365.771101,-8438.347739,-59755.448844
10699.374094,444.123565,1628.453072,-64352.021832
10699.377405,5329.482782,-1480.411884,-63432.707234
10699.380716,14656.077652,-6957.935855,-61594.078039
10699.384027,4145.153275,10807.006753,-46731.825378
10699.387338,-12879.583391,23242.466579,-52094.493864
10699.390658,-21762.054695,20725.766376,-90246.049664
10699.393978,-8438.347739,10510.924376,-117212.611194
10699.397297,-296.082377,-7994.224174,-118744.802190
10699.400617,-17172.777854,-1776.494261,-93003.993457
10699.403937,-16136.489536,14804.118840,-55618.533155
10699.407257,-12435.459826,15100.201217,-62360.173537
10699.410576,-15396.283594,10807.006753,-82585.094684
10699.413896,-6957.935855,8438.347739,-96374.813648
10699.417216,-9178.553681,3552.988522,-103422.892230
10699.420536,-17172.777854,13915.871710,-90246.049664
10699.423856,-3108.864956,14508.036463,-72012.976812
10699.427175,6069.688724,11991.336260,-74464.482406
10699.430495,-9770.718434,19985.560434,-71246.881314
10699.433815,-6809.894666,6069.688724,-86568.791274
10699.437135,1184.329507,-10066.800811,-99132.757441
10699.440454,-5773.606348,-11251.130318,-112156.380907
10699.443774,-7254.018232,-1480.411884,-91012.145162
10699.447094,-2368.659014,6957.935855,-69561.471218
10699.450414,1332.370696,10807.006753,-54086.342159
10699.453733,-2072.576638,2220.617826,-66190.651027
10699.457053,-4145.153275,-592.164754,-88100.982270
10699.460373,-6217.729913,2960.823768,-91165.364262
10699.463693,1184.329507,-6365.771101,-89479.954166
10699.467012,-3404.947333,-444.123565,-67569.622924
10699.470332,2368.659014,3997.112087,-58989.353346
10699.473652,-5625.565159,-7105.977043,-67416.403824
10699.476972,-22946.384202,-3849.070898,-88867.077768
10699.480292,-1036.288319,2368.659014,-86722.010374
10699.483611,-148.041188,14656.077652,-52400.932063
10699.486931,-7550.100608,31532.773129,-24821.494135
10699.490251,9178.553681,23538.548956,-44433.538884
10699.493571,-1776.494261,-5625.565159,-92544.336158
10699.496897,-11991.336260,-1036.288319,-87181.667672
10699.500223,-9770.718434,11843.295072,-80746.465489
10699.503549,-6365.771101,11843.295072,-74924.139704
10699.506875,-4441.235652,9918.759623,-69867.909418
10699.510201,-7105.977043,17172.777854,-59142.572446
10699.513527,-6513.812290,12435.459826,-80286.808190
10699.516853,-10955.047942,14211.954086,-70021.128517
10699.520179,-8734.430116,12583.501014,-90552.487864
10699.523506,-11251.130318,4441.235652,-97447.347346
10699.526832,8438.347739,888.247130,-75690.235202
10699.530158,14211.954086,5773.606348,-57303.943250
10699.533484,-1036.288319,-6365.771101,-48417.235474
10699.536810,592.164754,2516.700203,-60981.201641
10699.540136,6069.688724,4737.318029,-89326.735067
10699.543462,2812.782580,-2812.782580,-106027.616923
10699.546788,6217.729913,9918.759623,-79214.274493
10699.550114,6513.812290,1924.535449,-70174.347617
10699.553440,-148.041188,592.164754,-63585.926334
10699.556767,7402.059420,6661.853478,-58223.257848
10699.560093,7105.977043,-5033.400406,-75996.673402
10699.563419,-8290.306550,-3404.947333,-90092.830565
10699.566745,1184.329507,-5921.647536,-86262.353075
10699.570071,16284.530724,-6069.688724,-75077.358804
10699.573397,-2960.823768,17912.983796,-58376.476948
10699.576723,-12731.542202,30644.525999,-43973.881585
10699.580049,-12731.542202,20429.683999,-90705.706963
10699.583375,-13027.624579,6661.853478,-125180.004373
10699.586702,-9770.718434,-3108.864956,-98826.319242
10699.590028,-7254.018232,11251.130318,-57303.943250
10699.593354,-10510.924376,12731.542202,-56537.847752
10699.596680,-11547.212695,12879.583391,-68182.499322
10699.600006,-14063.912898,592.164754,-86568.791274
10699.603293,-5181.441594,12879.583391,-81206.122788
10699.606580,296.082377,15544.324782,-67569.622924
10699.609868,-12731.542202,14508.036463,-63585.926334
10699.613155,-14063.912898,15100.201217,-72012.976812
10699.616442,8142.265362,5477.523971,-74311.263306
10699.619730,14804.118840,11547.212695,-59908.667944
10699.623017,-6069.688724,17320.819043,-51328.398366
10699.626304,2960.823768,-10807.006753,-88713.858668
10699.629591,-6069.688724,-16136.489536,-115220.762899
10699.632879,-4293.194464,7846.182985,-101737.482134
10699.636166,8290.306550,8290.306550,-87947.763170
10699.639453,-2220.617826,6069.688724,-79367.493593
10699.642740,-11695.253884,1332.370696,-77682.083497
10699.646028,5329.482782,2960.823768,-70174.347617
10699.649315,592.164754,-6513.812290,-74770.920605
10699.652602,13619.789333,-9030.512492,-76762.768900
10699.655890,-2072.576638,-6365.771101,-79214.274493
10699.659177,8734.430116,-3849.070898,-60061.887043
10699.662464,17764.942608,2664.741391,-51328.398366
10699.665751,-5033.400406,8734.430116,-73238.729609
10699.669039,-20873.807564,8142.265362,-96221.594549
10699.672326,-7550.100608,14063.912898,-91471.802461
10699.675613,-6365.771101,14656.077652,-92237.897959
10699.678900,-1036.288319,2072.576638,-69408.252119
10699.682188,-2072.576638,8882.471304,-50102.645569
10699.685475,-14211.954086,7698.141797,-52094.493864
10699.688762,-3552.988522,8438.347739,-68642.156621
10699.692050,444.123565,7698.141797,-74004.825107
10699.695337,2960.823768,592.164754,-86875.229473
10699.698624,-9030.512492,16728.654289,-60674.763442
10699.701911,-3256.906145,23538.548956,-50255.864669
10699.705199,-4885.359217,3256.906145,-71859.757712
10699.708496,8142.265362,10362.883188,-77988.521696
10699.711794,14508.036463,13767.830521,-57150.724151
10699.715091,-4293.194464,8290.306550,-49183.330972
10699.718389,5921.647536,-13323.706956,-81052.903688
10699.721686,-3108.864956,-13471.748144,-98979.538342
10699.724984,-5625.565159,4145.153275,-87181.667672
10699.728281,3404.947333,6661.853478,-70327.566716
10699.731579,-6957.935855,7846.182985,-68488.937521
10699.734876,-3849.070898,1924.535449,-76609.549800
10699.738174,1332.370696,0.000000,-78754.617194
10699.741471,4441.235652,-2664.741391,-76303.111601
10699.744769,11103.089130,-4441.235652,-68642.156621
10699.748066,3701.029710,1924.535449,-60521.544342
10699.751364,3701.029710,-7402.059420,-70480.785816
10699.754661,11103.089130,-6957.935855,-66497.089226
10699.757959,11991.336260,20133.601622,-54239.561258
10699.761256,-14359.995275,15988.448347,-76915.987999
10699.764554,-16876.695478,11991.336260,-112156.380907
10699.767851,-6957.935855,13619.789333,-106027.616923
10699.771149,-444.123565,-592.164754,-91931.459760
10699.774446,-7105.977043,7846.182985,-65118.117330
10699.777744,-24130.713709,9770.718434,-63279.488135
10699.781041,-13619.789333,3108.864956,-83657.628382
10699.784339,-2368.659014,1332.370696,-88867.077768
10699.787645,592.164754,8438.347739,-69101.813920
10699.790951,-3997.112087,9030.512492,-76303.111601
10699.794258,-7550.100608,17764.942608,-52400.932063
10699.797564,-7550.100608,18949.272115,-55005.656756
10699.800870,6069.688724,2516.700203,-77988.521696
10699.804177,16876.695478,5921.647536,-68488.937521
10699.807483,2812.782580,10066.800811,-51634.836565
10699.810789,888.247130,-1628.453072,-47957.578175
10699.814096,1924.535449,-1628.453072,-72166.195912
10699.817402,3997.112087,2368.659014,-104035.768628
10699.820708,-3404.947333,3108.864956,-102350.358533
10699.824014,-5033.400406,12287.418637,-68029.280222
10699.827321,-5033.400406,4885.359217,-60215.106143
10699.830627,296.082377,6513.812290,-64198.802732
10699.833933,5181.441594,2664.741391,-83197.971083
10699.837240,2664.741391,-13323.706956,-100052.072039
10699.840546,-6217.729913,-4737.318029,-86722.010374
10699.843852,-2960.823768,2516.700203,-63739.145434
10699.847159,2516.700203,-2812.782580,-69714.690318
10699.850465,2368.659014,148.041188,-73238.729609
10699.853771,-12287.418637,19097.313304,-57150.724151
10699.857078,-12287.418637,30052.361245,-55618.533155
10699.860384,-3849.070898,14804.118840,-80286.808190
10699.863690,2960.823768,-3552.988522,-100358.510238
10699.866997,-10658.965565,740.205942,-95302.279951
10699.870303,-16580.613101,6365.771101,-76303.111601
10699.873609,-4885.359217,10510.924376,-56997.505051
10699.876916,-7105.977043,9918.759623,-60981.201641
10699.880222,888.247130,14211.954086,-66956.746525
10699.883528,-1184.329507,9918.759623,-74158.044206
10699.886835,-10658.965565,13619.789333,-70940.443115
10699.890141,-3108.864956,20281.642811,-65118.117330
10699.893453,-8438.347739,13767.830521,-79673.931792
10699.896765,1776.494261,-5033.400406,-100818.167537
10699.900077,16284.530724,-11399.171507,-80746.465489
10699.903389,3404.947333,-4589.276840,-37691.898502
10699.906701,444.123565,7105.977043,-38611.213099
10699.910013,1776.494261,17912.983796,-49183.330972
10699.913325,9178.553681,-296.082377,-81052.903688
10699.916637,-4737.318029,-1628.453072,-88560.639569
10699.919949,1184.329507,6217.729913,-77222.426198
10699.923261,2664.741391,6661.853478,-65424.555529
10699.926573,5033.400406,1036.288319,-68182.499322
10699.929885,3108.864956,1776.494261,-72625.853210
10699.933197,-2072.576638,-6809.894666,-83197.971083
10699.936509,296.082377,-444.123565,-74311.263306
10699.939821,-12731.542202,10066.800811,-67263.184724
10699.943133,-22946.384202,2072.576638,-94229.746254
10699.946446,-16580.613101,13767.830521,-111083.847210
10699.949758,-8438.347739,6809.894666,-102197.139433
10699.953070,-3404.947333,9918.759623,-50715.521968
10699.956382,444.123565,15100.201217,-36772.583904
10699.959694,-12287.418637,4737.318029,-74770.920605
10699.963006,-15396.283594,-1628.453072,-97294.128246
10699.966318,-13323.706956,-1480.411884,-89326.735067
10699.969630,4293.194464,18357.107362,-61594.078039
10699.972942,-4885.359217,17912.983796,-60827.982541
10699.976254,-11251.130318,10510.924376,-79061.055394
10699.979566,-10214.842000,9474.636058,-74924.139704
10699.982878,5625.565159,7105.977043,-62206.954438
10699.986190,19837.519246,7698.141797,-57916.819649
10699.989502,6661.853478,8290.306550,-45965.729880
10699.992814,-4145.153275,-10362.883188,-66956.746525
10699.996126,2516.700203,-9918.759623,-91778.240660
10699.999442,-444.123565,3256.906145,-98366.661943
10700.002759,1924.535449,7254.018232,-85343.038477
10700.006075,-2812.782580,7254.018232,-76149.892501
10700.009392,-4441.235652,10955.047942,-70480.785816
10700.012708,-444.123565,8734.430116,-83504.409282
10700.016025,148.041188,-6809.894666,-104188.987728
10700.019341,-11103.089130,-6069.688724,-91165.364262
10700.022658,-7254.018232,7994.224174,-70021.128517
10700.025974,-2664.741391,5329.482782,-79827.150892
10700.029291,-18949.272115,-7254.018232,-101124.605736
10700.032607,-9622.677246,-4589.276840,-100511.729338
10700.035924,-444.123565,23094.425390,-52860.589362
10700.039240,-8586.388927,35233.802839,-28345.533426
10700.042557,296.082377,12879.583391,-69408.252119
10700.045873,2960.823768,-4293.194464,-81972.218286
10700.049190,-10214.842000,2368.659014,-94689.403553
10700.052506,-7698.141797,9474.636058,-78754.617194
10700.055823,-1184.329507,12287.418637,-63126.269035
10700.059139,-6069.688724,12879.583391,-66497.089226
10700.062456,-1480.411884,14952.160028,-61594.078039
10700.065772,-9770.718434,14063.912898,-70634.004916
10700.069089,-8882.471304,15692.365970,-74464.482406
10700.072405,6513.812290,5033.400406,-76762.768900
10700.075722,5921.647536,14359.995275,-63585.926334
10700.079038,-6661.853478,8882.471304,-66343.870127
10700.082355,4589.276840,-9474.636058,-78754.617194
10700.085671,-1480.411884,-15100.201217,-103422.892230
10700.088988,-9918.759623,2812.782580,-92850.774358
10700.092304,11547.212695,11843.295072,-71706.538613
10700.095621,-9326.594869,7254.018232,-69101.813920
10700.098937,-11695.253884,3997.112087,-87794.544071
10700.102254,5625.565159,2516.700203,-87028.448573
10700.105573,1332.370696,-5033.400406,-91625.021561
10700.108892,-3404.947333,-5181.441594,-80899.684589
10700.112211,5477.523971,148.041188,-68488.937521
10700.115530,-14656.077652,-2960.823768,-68795.375720
10700.118849,5329.482782,-12583.501014,-71246.881314
10700.122168,-1628.453072,-4441.235652,-93310.431656
10700.125487,-3256.906145,15840.407159,-59142.572446
10700.128806,-5033.400406,34049.473332,-21910.331243
10700.132125,6513.812290,17616.901420,-41982.033290
10700.135444,3849.070898,-148.041188,-80899.684589
10700.138763,-6809.894666,9178.553681,-98673.100142
10700.142082,592.164754,2516.700203,-90552.487864
10700.145401,-11103.089130,4293.194464,-71859.757712
10700.148720,2516.700203,18949.272115,-48417.235474
10700.152039,-296.082377,15692.365970,-58836.134246
10700.155358,-18505.148550,11251.130318,-87488.105872
10700.158677,-8142.265362,8438.347739,-104035.768628
10700.161996,6069.688724,296.082377,-97600.566445
10700.165315,6809.894666,5625.565159,-75230.577904
10700.168634,-2960.823768,14359.995275,-53933.123059
10700.171953,-1480.411884,-8438.347739,-85189.819378
10700.175272,-11251.130318,-17024.736666,-122881.717879
10700.178591,-6365.771101,-4441.235652,-108019.465218
10700.181910,5181.441594,12879.583391,-68182.499322
10700.185229,1480.411884,9918.759623,-65118.117330
10700.188548,-3256.906145,5773.606348,-65118.117330
10700.191867,3404.947333,740.205942,-80440.027290
10700.195186,6957.935855,-6069.688724,-84117.285680
10700.198505,6365.771101,148.041188,-73545.167808
10700.201824,4441.235652,-5477.523971,-77375.645298
10700.205143,-2960.823768,8290.306550,-67416.403824
10700.208462,-10955.047942,444.123565,-79061.055394
10700.211782,-8586.388927,-1036.288319,-96528.032748
10700.215102,-8882.471304,16728.654289,-69714.690318
10700.218423,-3552.988522,32865.143825,-42288.471490
10700.221743,-3256.906145,17468.860231,-43514.224286
10700.225063,-2664.741391,2812.782580,-58529.696047
10700.228384,-8142.265362,6217.729913,-82431.875585
10700.231704,-18505.148550,9178.553681,-90092.830565
10700.235024,-7402.059420,7698.141797,-87334.886772
10700.238345,-10214.842000,8290.306550,-84423.723880
10700.241665,-14656.077652,11695.253884,-86875.229473
10700.244985,-16876.695478,15248.242405,-79673.931792
10700.248306,-18653.189738,15396.283594,-76762.768900
10700.251626,-10955.047942,1776.494261,-88407.420469
10700.254946,12879.583391,-2072.576638,-77835.302597
10700.258267,8882.471304,13915.871710,-36312.926605
10700.261587,-3404.947333,-888.247130,-33095.325514
10700.264907,6365.771101,-3849.070898,-68488.937521
10700.268228,4737.318029,-4293.194464,-108479.122517
10700.271548,3849.070898,7698.141797,-79827.150892
10700.274868,12731.542202,10510.924376,-57457.162350
10700.278189,-6513.812290,4737.318029,-75077.358804
10700.281509,2812.782580,-296.082377,-82891.532884
10700.284829,9622.677246,-9918.759623,-82278.656485
10700.288150,888.247130,-296.082377,-65118.117330
10700.291470,4145.153275,0.000000,-56844.285952
10700.294790,7105.977043,-1036.288319,-69101.813920
10700.298111,-14359.995275,8586.388927,-61900.516238
10700.301431,-26647.413912,18653.189738,-79520.712692
10700.304751,-7550.100608,21317.931130,-105567.959624
10700.308071,-14211.954086,14656.077652,-105721.178724
10700.311392,-9178.553681,-1628.453072,-79367.493593
10700.314712,-888.247130,6217.729913,-45506.072581
10700.318026,-21614.013506,16580.613101,-41522.375992
10700.321347,-15988.448347,14952.160028,-59449.010645
10700.324668,-1776.494261,-10362.883188,-102810.015832
10700.327988,-5625.565159,6513.812290,-91012.145162
10700.331309,-4589.276840,23242.466579,-53779.903960
10700.334630,-2072.576638,17024.736666,-56078.190454
10700.337950,3552.988522,17616.901420,-62973.049936
10700.341271,7254.018232,13471.748144,-77069.207099
10700.344592,-2368.659014,5625.565159,-89479.954166
10700.347912,3404.947333,-18653.189738,-93463.650756
10700.351233,4589.276840,-20429.683999,-81206.122788
10700.354554,-740.205942,7254.018232,-60827.982541
10700.357874,-2960.823768,12287.418637,-56997.505051
10700.361195,-1628.453072,6513.812290,-56691.066852
10700.364516,-2368.659014,-1036.288319,-86875.229473
10700.367836,-6069.688724,1036.288319,-90705.706963
10700.371157,9474.636058,1628.453072,-79827.150892
10700.374478,148.041188,-444.123565,-65271.336430
10700.377798,-4885.359217,1036.288319,-72472.634111
10700.381119,-4293.194464,1184.329507,-74004.825107
10700.384440,-17764.942608,-3404.947333,-82278.656485
10700.387760,-1480.411884,-3404.947333,-86722.010374
10700.391081,-1628.453072,18505.148550,-51481.617466
10700.394402,-6513.812290,38786.791361,-27885.876127
10700.397722,-444.123565,20725.766376,-37385.460302
10700.401043,3108.864956,-4737.318029,-69255.033019
10700.404364,-6365.771101,6513.812290,-87794.544071
10700.407684,-740.205942,4885.359217,-75537.016103
10700.411005,-6809.894666,2368.659014,-58376.476948
10700.414326,-6957.935855,16728.654289,-51941.274764
10700.417646,-4589.276840,22058.137072,-54239.561258
10700.420967,1924.535449,10214.842000,-72166.195912
10700.424245,-23390.507767,16580.613101,-74924.139704
10700.427524,-1480.411884,10807.006753,-87334.886772
10700.430802,10066.800811,-2368.659014,-89633.173266
10700.434080,9178.553681,-10658.965565,-86109.133975
10700.437359,2664.741391,-14359.995275,-65884.212828
10700.440637,-1184.329507,-2664.741391,-56844.285952
10700.443915,-3404.947333,11103.089130,-69101.813920
10700.447194,11103.089130,148.041188,-84883.381178
10700.450472,3256.906145,1628.453072,-83810.847481
10700.453750,-3256.906145,4885.359217,-79980.369991
10700.457029,8734.430116,2516.700203,-76609.549800
10700.460307,7994.224174,-1776.494261,-73238.729609
10700.463585,-1480.411884,2664.741391,-70174.347617
10700.466864,-4293.194464,-5773.606348,-85802.695776
10700.470142,9326.594869,-8290.306550,-87028.448573
10700.473420,592.164754,-2812.782580,-78294.959896
10700.476699,-10362.883188,20725.766376,-54086.342159
10700.479977,-13323.706956,35825.967593,-49183.330972
10700.483255,-4589.276840,20725.766376,-78907.836294
10700.486534,-1184.329507,-7698.141797,-110470.970812
10700.489812,-13915.871710,-2960.823768,-94076.527154
10700.493090,-11991.336260,12435.459826,-85189.819378
10700.496369,-6513.812290,3701.029710,-65424.555529
10700.499647,-14508.036463,9178.553681,-70787.224015
10700.502925,-10214.842000,15248.242405,-84117.285680
10700.506204,-10214.842000,3849.070898,-82278.656485
10700.509482,-14508.036463,11843.295072,-55618.533155
10700.512760,-7846.182985,10955.047942,-68795.375720
10700.516039,11843.295072,6069.688724,-54852.437657
10700.519317,12583.501014,4885.359217,-48723.673673
10700.522595,6661.853478,-19245.354492,-69255.033019
10700.525874,3849.070898,-6809.894666,-82125.437386
10700.529158,-444.123565,10214.842000,-74311.263306
10700.532443,9918.759623,7698.141797,-70634.004916
10700.535728,4737.318029,3701.029710,-70327.566716
10700.539013,-2516.700203,9030.512492,-75537.016103
10700.542298,1776.494261,-1332.370696,-81359.341888
10700.545583,-4589.276840,-3849.070898,-78601.398095
10700.548867,-5329.482782,5181.441594,-74924.139704
10700.552152,0.000000,-10807.006753,-82891.532884
10700.555437,6513.812290,-11251.130318,-78601.398095
10700.558722,4589.276840,12139.377449,-52554.151163
10700.562007,-14508.036463,18801.230927,-59142.572446
10700.565291,-21317.931130,24130.713709,-60674.763442
10700.568576,-8142.265362,17320.819043,-97907.004644
10700.571861,1036.288319,-4589.276840,-110317.751712
10700.575146,-11547.212695,296.082377,-85036.600278
10700.578431,-8734.430116,15544.324782,-67263.184724
10700.581715,-7698.141797,2960.823768,-71553.319513
10700.585000,-8290.306550,7994.224174,-67416.403824
10700.588285,-13175.665768,21762.054695,-63432.707234
10700.591570,-2960.823768,9178.553681,-87794.544071
10700.594855,-18061.024985,7550.100608,-92850.774358
10700.598140,-3849.070898,8438.347739,-75996.673402
10700.601424,18061.024985,5625.565159,-57610.381450
10700.604709,4145.153275,11103.089130,-51175.179266
10700.607999,3404.947333,-13767.830521,-60827.982541
10700.611290,-1924.535449,-10658.965565,-72012.976812
10700.614580,-1332.370696,12139.377449,-75843.454302
10700.617870,5773.606348,3108.864956,-87488.105872
10700.621161,-4293.194464,-2516.700203,-83657.628382
10700.624451,-5477.523971,7105.977043,-74004.825107
10700.627741,10214.842000,8290.306550,-51941.274764
10700.631032,3404.947333,-3849.070898,-65730.993728
10700.634322,-3701.029710,-3256.906145,-86415.572174
10700.637612,-5033.400406,-9030.512492,-88560.639569
10700.640903,-5921.647536,-9178.553681,-87181.667672
10700.644193,2960.823768,1776.494261,-70634.004916
10700.647483,-5921.647536,21465.972318,-51788.055665
10700.650773,-13027.624579,29016.072926,-55465.314055
10700.654064,-3108.864956,19097.313304,-78294.959896
10700.657354,2960.823768,-3404.947333,-100971.386636
10700.660644,-9770.718434,2072.576638,-96681.251848
10700.663935,888.247130,13619.789333,-88713.858668
10700.667225,-11991.336260,-1480.411884,-72932.291410
10700.670515,-7254.018232,17616.901420,-66190.651027
10700.673806,-13175.665768,17764.942608,-79520.712692
10700.677096,-10510.924376,6809.894666,-96834.470947
10700.680386,-13915.871710,14508.036463,-92697.555258
10700.683677,-12731.542202,14211.954086,-93770.088955
10700.686967,1776.494261,-3701.029710,-100052.072039
10700.690257,10955.047942,-2664.741391,-72012.976812
10700.693547,148.041188,-10658.965565,-48264.016374
10700.696838,1036.288319,1036.288319,-59449.010645
10700.700128,-7105.977043,11991.336260,-76149.892501
10700.703418,7698.141797,5181.441594,-82738.313784
10700.706709,9326.594869,-1332.370696,-81972.218286
10700.709999,1480.411884,15692.365970,-75077.358804
10700.713293,13027.624579,1332.370696,-74770.920605
10700.716588,3849.070898,296.082377,-62973.049936
10700.719882,4737.318029,-148.041188,-68948.594820
10700.723176,5921.647536,4293.194464,-81052.903688
10700.726470,-25611.125593,-888.247130,-91318.583362
10700.729765,-12287.418637,-5181.441594,-101124.605736
10700.733059,-6661.853478,11843.295072,-72779.072310
10700.736353,-7994.224174,22946.384202,-66803.527426
10700.739648,-1776.494261,20133.601622,-36159.707506
10700.742942,-4589.276840,3701.029710,-58529.696047
10700.746236,-11991.336260,2812.782580,-91471.802461
10700.749531,2368.659014,6513.812290,-89939.611465
10700.752825,-2220.617826,-1628.453072,-85802.695776
10700.756119,-5329.482782,16136.489536,-61440.858940
10700.759413,-7105.977043,25463.084405,-56231.409553
10700.762708,-6217.729913,5477.523971,-70634.004916
10700.766002,-5477.523971,9030.512492,-73085.510509
10700.769296,10510.924376,22206.178260,-59908.667944
10700.772591,6809.894666,10066.800811,-49336.550071
10700.775885,-740.205942,-14211.954086,-85036.600278
10700.779179,-4885.359217,-16580.613101,-106180.836023
10700.782474,2960.823768,-888.247130,-92850.774358
10700.785768,5329.482782,11103.089130,-60981.201641
10700.789062,-3997.112087,12139.377449,-53626.684860
10700.792356,-888.247130,5033.400406,-60061.887043
10700.795651,3997.112087,4737.318029,-82278.656485
10700.798945,6661.853478,-6069.688724,-91165.364262
10700.802239,2960.823768,1628.453072,-88713.858668
10700.805534,-3108.864956,-2960.823768,-81665.780087
10700.808828,12287.418637,-4885.359217,-83351.190182
10700.812122,2368.659014,2072.576638,-65424.555529
10700.815417,-19837.519246,26795.455100,-50868.741067
10700.818714,-14508.036463,27683.702231,-83504.409282
10700.822011,-10066.800811,15100.201217,-111543.504509
10700.825308,-3552.988522,-2960.823768,-99745.633840
10700.828605,-4885.359217,-2516.700203,-92391.117059
10700.831902,-5773.606348,8734.430116,-69408.252119
10700.835199,-5329.482782,12435.459826,-52400.932063
10700.838496,-2072.576638,3997.112087,-65271.336430
10700.841793,-10658.965565,9770.718434,-88100.982270
10700.845090,-4145.153275,13767.830521,-81665.780087
10700.848388,740.205942,16432.571912,-73698.386908
10700.851685,-10510.924376,15396.283594,-67416.403824
10700.854982,6957.935855,1628.453072,-81972.218286
10700.858279,22058.137072,-11991.336260,-82125.437386
10700.861576,296.082377,-11399.171507,-55158.875856
10700.864873,-592.164754,296.082377,-50715.521968
10700.868170,4737.318029,15248.242405,-60215.106143
10700.871467,296.082377,4441.235652,-85496.257577
10700.874764,1332.370696,-740.205942,-94382.965354
10700.878061,11547.212695,6957.935855,-82585.094684
10700.881359,4589.276840,-1480.411884,-69867.909418
10700.884656,3108.864956,5329.482782,-56231.409553
10700.887953,7698.141797,-6217.729913,-71246.881314
10700.891250,3997.112087,-888.247130,-79061.055394
10700.894547,-12287.418637,7105.977043,-71400.100414
10700.897844,-18801.230927,1332.370696,-98826.319242
10700.901141,-15840.407159,16580.613101,-105108.302326
10700.904438,-9918.759623,15692.365970,-112922.476405
10700.907735,-4589.276840,3997.112087,-70787.224015
10700.911033,-15396.283594,18357.107362,-29877.724422
10700.914330,-16284.530724,10658.965565,-66803.527426
10700.917627,-6513.812290,-11547.212695,-110624.189911
10700.920924,-9918.759623,3256.906145,-73391.948708
10700.924223,-9030.512492,17172.777854,-59142.572446
10700.927522,-5181.441594,26795.455100,-37845.117601
10700.930821,-15100.201217,13323.706956,-68029.280222
10700.934119,7994.224174,-1480.411884,-93003.993457
10700.937418,19245.354492,8290.306550,-51481.617466
10700.940717,16432.571912,22354.219448,-25740.808733
10700.944016,10658.965565,-3404.947333,-26047.246932
10700.947315,1776.494261,-15840.407159,-78754.617194
10700.950614,1628.453072,2664.741391,-99439.195640
10700.953913,8882.471304,4885.359217,-83657.628382
10700.957212,2220.617826,7105.977043,-63585.926334
10700.960511,6069.688724,13323.706956,-55618.533155
10700.963810,7846.182985,-740.205942,-71553.319513
10700.967109,-5181.441594,-1036.288319,-85496.257577
10700.970408,296.082377,-7254.018232,-99132.757441
10700.973706,-15544.324782,-3997.112087,-100664.948437
10700.977005,-30940.608376,-740.205942,-86722.010374
10700.980304,-19837.519246,6809.894666,-99745.633840
10700.983603,-12731.542202,11991.336260,-94076.527154
10700.986902,-15692.365970,25315.043216,-69101.813920
10700.990201,-1036.288319,16876.695478,-48110.797274
10700.993500,-4737.318029,-888.247130,-54852.437657
10700.996799,-12583.501014,7994.224174,-76303.111601
10701.000098,-6513.812290,6365.771101,-85036.600278
10701.003397,-2812.782580,-4293.194464,-99439.195640
10701.006696,-11843.295072,16136.489536,-67876.061123
10701.009994,-8290.306550,26795.455100,-46885.044478
10701.013293,-4885.359217,16432.571912,-58989.353346
10701.016592,4589.276840,4737.318029,-87641.324971
10701.019891,16728.654289,-3256.906145,-88713.858668
10701.023190,10955.047942,7550.100608,-66343.870127
10701.026489,4589.276840,-1776.494261,-46425.387179
10701.029789,0.000000,-11251.130318,-85036.600278
10701.033089,-6661.853478,-5773.606348,-119970.554987
10701.036389,3552.988522,2960.823768,-112616.038206
10701.039688,10066.800811,-3552.988522,-84270.504780
10701.042988,-4885.359217,8290.306550,-53320.246661
10701.046288,4737.318029,9918.759623,-61747.297139
10701.049588,148.041188,-13175.665768,-84117.285680
10701.052888,444.123565,-10066.800811,-80133.589091
10701.056188,3404.947333,5329.482782,-76762.768900
10701.059488,-20873.807564,6069.688724,-74004.825107
10701.062788,-11695.253884,-5773.606348,-96834.470947
10701.066087,-2812.782580,11843.295072,-73238.729609
10701.069387,-6069.688724,31680.814318,-40603.061394
10701.072687,2812.782580,24722.878463,-41828.814191
10701.075987,-5921.647536,10658.965565,-46425.387179
10701.079287,-5477.523971,-5921.647536,-88254.201370
10701.082587,-2072.576638,296.082377,-85802.695776
10701.085887,-296.082377,8142.265362,-51021.960167
10701.089187,-7105.977043,21910.095883,-36619.364804
10701.092486,-7550.100608,25167.002028,-46272.168079
10701.095786,-8734.430116,9918.759623,-72166.195912
