#time,accel_x,accel_y,accel_z
13429.497667,-2516.700203,8290.306550,-75077.358804
13429.500397,-148.041188,5181.441594,-74617.701505
13429.503126,-5033.400406,3849.070898,-77375.645298
13429.505856,-3701.029710,7402.059420,-72166.195912
13429.508585,2072.576638,6661.853478,-72319.415011
13429.511314,-4441.235652,3404.947333,-80899.684589
13429.514044,-3552.988522,5033.400406,-75996.673402
13429.516773,-2812.782580,7550.100608,-71553.319513
13429.519503,-5033.400406,5625.565159,-75996.673402
13429.522232,-1036.288319,6365.771101,-76149.892501
13429.524962,-4145.153275,3256.906145,-76609.549800
13429.527691,-3552.988522,6217.729913,-77682.083497
13429.530421,444.123565,6809.894666,-75537.016103
13429.533150,-7105.977043,5625.565159,-75690.235202
13429.535879,-3404.947333,8586.388927,-74311.263306
13429.538609,1480.411884,5033.400406,-77835.302597
13429.541338,-5625.565159,1924.535449,-80133.589091
13429.544068,-6365.771101,6365.771101,-77375.645298
13429.546797,2664.741391,9474.636058,-68029.280222
13429.549527,-1924.535449,5033.400406,-73698.386908
13429.552256,-6365.771101,5181.441594,-79980.369991
13429.554985,3701.029710,6513.812290,-77069.207099
13429.557715,-1036.288319,3256.906145,-79673.931792
13429.560444,-3552.988522,5033.400406,-74004.825107
13429.563174,1924.535449,10510.924376,-67569.622924
13429.565903,4145.153275,6069.688724,-78601.398095
13429.568633,-592.164754,2812.782580,-81052.903688
13429.571362,-3849.070898,2960.823768,-74311.263306
13429.574092,-5181.441594,296.082377,-72932.291410
13429.576821,-3404.947333,740.205942,-75537.016103
13429.579550,5625.565159,1480.411884,-77988.521696
13429.582280,-9178.553681,5033.400406,-81052.903688
13429.585009,-1036.288319,9178.553681,-79827.150892
13429.587953,-9326.594869,8586.388927,-75996.673402
13429.590897,-5625.565159,4145.153275,-78754.617194
13429.593841,1480.411884,10955.047942,-76762.768900
13429.596785,-11695.253884,9474.636058,-74158.044206
13429.599729,-18061.024985,3256.906145,-86109.133975
13429.602673,9030.512492,9178.553681,-79673.931792
13429.605616,-5625.565159,5625.565159,-67722.842023
13429.608560,-6809.894666,9474.636058,-71093.662214
13429.611504,-15692.365970,8142.265362,-72166.195912
13429.614448,8290.306550,8142.265362,-78907.836294
13429.617392,-5773.606348,5181.441594,-80286.808190
13429.620336,-9326.594869,10955.047942,-73238.729609
13429.623280,-5773.606348,8438.347739,-74617.701505
13429.626223,-4145.153275,6365.771101,-82891.532884
13429.629167,-1924.535449,3108.864956,-81512.560987
13429.632111,-12287.418637,7698.141797,-74617.701505
13429.635055,-3552.988522,14508.036463,-72472.634111
13429.637999,-2072.576638,13027.624579,-62819.830836
13429.640943,148.041188,11547.212695,-67876.061123
13429.643887,1776.494261,5329.482782,-68488.937521
13429.646831,1776.494261,10807.006753,-68642.156621
13429.649774,-8586.388927,1184.329507,-71093.662214
13429.652718,-3404.947333,7994.224174,-73391.948708
13429.655662,4885.359217,16876.695478,-74158.044206
13429.658606,-7254.018232,9178.553681,-83197.971083
13429.661550,-4737.318029,11547.212695,-70480.785816
13429.664494,-5181.441594,12435.459826,-78601.398095
13429.667438,-17912.983796,3701.029710,-103269.673130
13429.670382,-9178.553681,-9622.677246,-119357.678588
13429.673325,5477.523971,-2072.576638,-83351.190182
13429.676269,-16876.695478,19097.313304,-43514.224286
13429.679213,-2368.659014,6809.894666,-64352.021832
13429.682114,1480.411884,6513.812290,-91625.021561
13429.685015,-15544.324782,-8142.265362,-110470.970812
13429.687915,0.000000,-6513.812290,-76762.768900
13429.690816,2072.576638,6661.853478,-39836.965896
13429.693717,4441.235652,8142.265362,-49489.769171
13429.696617,5921.647536,7846.182985,-69867.909418
13429.699518,-888.247130,-296.082377,-78601.398095
13429.702419,-6957.935855,2664.741391,-71093.662214
13429.705320,9770.718434,10807.006753,-53779.903960
13429.708220,14804.118840,6809.894666,-57610.381450
13429.711121,-10214.842000,-2812.782580,-78294.959896
13429.714022,0.000000,3404.947333,-82891.532884
13429.716922,296.082377,8438.347739,-73851.606007
13429.719823,-3997.112087,6069.688724,-65884.212828
13429.722724,5181.441594,10807.006753,-60368.325242
13429.725625,3552.988522,2368.659014,-69867.909418
13429.728525,0.000000,-6809.894666,-77835.302597
13429.731426,-6365.771101,-5329.482782,-75383.797003
13429.734327,6957.935855,1480.411884,-72625.853210
13429.737227,-9770.718434,3404.947333,-72012.976812
13429.740128,6957.935855,11251.130318,-74464.482406
13429.743029,-444.123565,11991.336260,-70174.347617
13429.745929,9326.594869,-740.205942,-72625.853210
13429.748830,12139.377449,4145.153275,-66037.431928
13429.751731,4145.153275,13471.748144,-50562.302868
13429.754632,-11843.295072,888.247130,-70174.347617
13429.757532,-8142.265362,-2368.659014,-102197.139433
13429.760433,-2516.700203,1184.329507,-93616.869856
13429.763334,8734.430116,19245.354492,-44586.757984
13429.766234,3552.988522,25759.166782,-24361.836836
13429.769135,-2220.617826,11251.130318,-42594.909689
13429.772036,-6513.812290,-2072.576638,-97294.128246
13429.775088,-5033.400406,148.041188,-102197.139433
13429.778140,-740.205942,11103.089130,-75383.797003
13429.781191,-6809.894666,18653.189738,-63432.707234
13429.784243,7550.100608,13915.871710,-62973.049936
13429.787295,-13471.748144,7402.059420,-89939.611465
13429.790347,-9622.677246,444.123565,-102810.015832
13429.793399,-148.041188,5033.400406,-79980.369991
13429.796451,-3108.864956,14508.036463,-62973.049936
13429.799503,-2812.782580,7698.141797,-82738.313784
13429.802555,-148.041188,-888.247130,-80746.465489
13429.805606,-5181.441594,-2812.782580,-80746.465489
13429.808658,3849.070898,3997.112087,-74770.920605
13429.811710,-6957.935855,12731.542202,-75537.016103
13429.814762,-12879.583391,14656.077652,-86722.010374
13429.817814,-3849.070898,7254.018232,-90092.830565
13429.820866,-1184.329507,0.000000,-89173.515967
13429.823918,-17912.983796,10214.842000,-78907.836294
13429.826969,-4737.318029,8734.430116,-76762.768900
13429.830021,2960.823768,5033.400406,-75077.358804
13429.833073,-10214.842000,7698.141797,-77069.207099
13429.836125,3997.112087,8142.265362,-74158.044206
13429.839177,8882.471304,13323.706956,-70021.128517
13429.842229,-11399.171507,13323.706956,-63739.145434
13429.845281,-7698.141797,8882.471304,-88100.982270
13429.848333,-888.247130,-8290.306550,-114148.229202
13429.851384,-3108.864956,-8290.306550,-90858.926063
13429.854436,-7698.141797,18949.272115,-44739.977083
13429.857488,2368.659014,17320.819043,-54392.780358
13429.860540,-888.247130,12879.583391,-82585.094684
13429.863592,-13915.871710,-4293.194464,-102656.796732
13429.866644,-592.164754,-7994.224174,-84117.285680
13429.869696,1628.453072,592.164754,-49336.550071
13429.872697,6217.729913,8734.430116,-44893.196183
13429.875699,-4441.235652,10362.883188,-61134.420740
13429.878700,-7402.059420,-592.164754,-85802.695776
13429.881702,-888.247130,592.164754,-78907.836294
13429.884703,-2960.823768,5773.606348,-61440.858940
13429.887704,1480.411884,5625.565159,-58529.696047
13429.890706,3701.029710,10955.047942,-72319.415011
13429.893707,-1184.329507,-1628.453072,-75843.454302
13429.896709,296.082377,7698.141797,-69255.033019
13429.899710,7550.100608,9326.594869,-65271.336430
13429.902712,5033.400406,3849.070898,-69714.690318
13429.905713,2960.823768,-7846.182985,-73698.386908
13429.908715,6957.935855,0.000000,-66343.870127
13429.911716,14211.954086,6365.771101,-69714.690318
13429.914718,-9474.636058,7402.059420,-76915.987999
13429.917719,3849.070898,4293.194464,-79827.150892
13429.920721,-9178.553681,6365.771101,-81818.999186
13429.923722,-5773.606348,-444.123565,-76149.892501
13429.926724,5477.523971,-444.123565,-80899.684589
13429.929725,5329.482782,-1628.453072,-69561.471218
13429.932727,-9326.594869,9178.553681,-59908.667944
13429.935728,-25611.125593,15100.201217,-84270.504780
13429.938730,-19393.395680,-1776.494261,-112616.038206
13429.941731,6365.771101,-1184.329507,-88713.858668
13429.944704,4885.359217,23538.548956,-73545.167808
13429.947676,-3701.029710,17764.942608,-32329.230016
13429.950648,3849.070898,10955.047942,-57610.381450
13429.953621,-6957.935855,-740.205942,-91012.145162
13429.956593,-7994.224174,5181.441594,-90246.049664
13429.959565,7402.059420,17912.983796,-62053.735338
13429.962538,-2812.782580,11251.130318,-58989.353346
13429.965510,-9030.512492,12139.377449,-65118.117330
13429.968482,-10510.924376,4885.359217,-88100.982270
13429.971455,5181.441594,3404.947333,-87641.324971
13429.974427,-9770.718434,11991.336260,-63739.145434
13429.977399,-888.247130,14804.118840,-64505.240932
13429.980372,-2368.659014,6661.853478,-60827.982541
13429.983344,592.164754,1628.453072,-81206.122788
13429.986316,-6365.771101,3997.112087,-79214.274493
13429.989289,-740.205942,12879.583391,-71400.100414
13429.992261,-13027.624579,12731.542202,-78141.740796
13429.995233,-6809.894666,8290.306550,-89939.611465
13429.998206,-10066.800811,5477.523971,-91318.583362
13430.001178,-11103.089130,6365.771101,-89939.611465
13430.004150,2516.700203,3701.029710,-78294.959896
13430.007123,-13027.624579,11547.212695,-68029.280222
13430.010095,-12287.418637,7105.977043,-74770.920605
13430.013067,6513.812290,7698.141797,-75077.358804
13430.016040,8882.471304,6069.688724,-59602.229744
13430.019012,-9178.553681,18209.066173,-54086.342159
13430.021984,-1184.329507,2368.659014,-93770.088955
13430.024957,-16728.654289,-10807.006753,-121043.088684
13430.027929,-1776.494261,4589.276840,-90246.049664
13430.030901,8734.430116,16876.695478,-47804.359075
13430.033874,-148.041188,11695.253884,-54392.780358
13430.036846,-12287.418637,10066.800811,-72779.072310
13430.039934,-5625.565159,-9918.759623,-102503.577632
13430.043022,3108.864956,-4145.153275,-86415.572174
13430.046109,6069.688724,11399.171507,-48570.454573
13430.049197,-3849.070898,12435.459826,-56231.409553
13430.052285,-7846.182985,1628.453072,-69714.690318
13430.055373,-3552.988522,592.164754,-101124.605736
13430.058460,8438.347739,-2664.741391,-91778.240660
13430.061548,-5773.606348,9918.759623,-55005.656756
13430.064636,1628.453072,13471.748144,-53320.246661
13430.067723,-4737.318029,-296.082377,-80286.808190
13430.070811,-10658.965565,444.123565,-81359.341888
13430.073899,3997.112087,-2220.617826,-84270.504780
13430.076987,-888.247130,592.164754,-69101.813920
13430.080074,-6957.935855,5773.606348,-62360.173537
13430.083162,11251.130318,1776.494261,-77835.302597
13430.086250,3108.864956,4737.318029,-87028.448573
13430.089337,-13619.789333,2812.782580,-83964.066581
13430.092425,3997.112087,2960.823768,-77682.083497
13430.095513,-7550.100608,12435.459826,-73238.729609
13430.098601,-7846.182985,1776.494261,-87947.763170
13430.101688,6365.771101,-3108.864956,-84883.381178
13430.104776,3701.029710,10510.924376,-58529.696047
13430.107864,-2220.617826,24130.713709,-45659.291681
13430.110952,-20281.642811,16432.571912,-70327.566716
13430.114039,-8438.347739,-3701.029710,-124413.908875
13430.117127,-13915.871710,-1776.494261,-107866.246118
13430.120215,7402.059420,12287.418637,-47804.359075
13430.123302,-9474.636058,21021.848753,-32176.010916
13430.126390,-10214.842000,16136.489536,-43667.443386
13430.129478,-10066.800811,-1332.370696,-86262.353075
13430.132566,296.082377,2664.741391,-91165.364262
13430.135653,2960.823768,11843.295072,-58989.353346
13430.138825,8882.471304,16728.654289,-47957.578175
13430.141996,-11399.171507,9474.636058,-75383.797003
13430.145167,-11991.336260,6217.729913,-80286.808190
13430.148339,11399.171507,3849.070898,-95302.279951
13430.151510,-6217.729913,7105.977043,-70480.785816
13430.154681,-7254.018232,17320.819043,-55158.875856
13430.157852,-4885.359217,10214.842000,-74004.825107
13430.161024,-3108.864956,-1776.494261,-92544.336158
13430.164195,-6661.853478,5033.400406,-91012.145162
13430.167366,-6365.771101,11547.212695,-76303.111601
13430.170538,-10955.047942,10955.047942,-65271.336430
13430.173709,-11399.171507,6069.688724,-73698.386908
13430.176880,3256.906145,1332.370696,-81972.218286
13430.180052,-3997.112087,10807.006753,-78601.398095
13430.183223,-25907.207970,11991.336260,-74311.263306
13430.186394,-148.041188,-2812.782580,-73085.510509
13430.189565,15544.324782,4737.318029,-58989.353346
13430.192737,17616.901420,17764.942608,-52094.493864
13430.195908,-5921.647536,6809.894666,-74924.139704
13430.199079,-10658.965565,-3108.864956,-107253.369720
13430.202251,7254.018232,-5625.565159,-98213.442844
13430.205422,15396.283594,1184.329507,-77835.302597
13430.208593,-1184.329507,15840.407159,-52860.589362
13430.211765,-5033.400406,13027.624579,-73851.606007
13430.214936,-5921.647536,-10807.006753,-108479.122517
13430.218107,-8438.347739,-7254.018232,-102197.139433
13430.221278,1480.411884,4885.359217,-87488.105872
13430.224450,592.164754,12287.418637,-71400.100414
13430.227621,-8290.306550,5033.400406,-76915.987999
13430.230792,-4589.276840,1924.535449,-91625.021561
13430.233964,-2368.659014,-444.123565,-92697.555258
13430.237135,-5477.523971,4441.235652,-69714.690318
13430.240366,2960.823768,12287.418637,-71859.757712
13430.243597,-2072.576638,3108.864956,-78448.178995
13430.246828,-5329.482782,2664.741391,-83810.847481
13430.250059,-4441.235652,-2220.617826,-83351.190182
13430.253290,-5921.647536,-888.247130,-74617.701505
13430.256521,8882.471304,-444.123565,-71859.757712
13430.259752,3404.947333,8734.430116,-70021.128517
13430.262983,-7994.224174,7698.141797,-75077.358804
13430.266215,0.000000,3849.070898,-79673.931792
13430.269446,-5921.647536,6069.688724,-78141.740796
13430.272677,-5477.523971,-296.082377,-81972.218286
13430.275908,8438.347739,2664.741391,-72012.976812
13430.279139,12435.459826,4441.235652,-69408.252119
13430.282370,-1036.288319,21169.889941,-46425.387179
13430.285601,-19689.478057,13767.830521,-68948.594820
13430.288832,-1480.411884,-1480.411884,-114607.886501
13430.292063,-11547.212695,6365.771101,-94536.184453
13430.295294,2516.700203,15396.283594,-46425.387179
13430.298525,8586.388927,16136.489536,-36772.583904
13430.301756,-6661.853478,11399.171507,-54239.561258
13430.304987,-11251.130318,2072.576638,-92697.555258
13430.308218,1776.494261,2960.823768,-94229.746254
13430.311449,1480.411884,11251.130318,-66956.746525
13430.314680,-4589.276840,15988.448347,-60061.887043
13430.317911,-2664.741391,11103.089130,-66956.746525
13430.321143,-7994.224174,2220.617826,-87488.105872
13430.324374,-7254.018232,4145.153275,-85802.695776
13430.327605,-1480.411884,7105.977043,-69101.813920
13430.330836,-12435.459826,13175.665768,-68642.156621
13430.334067,-5181.441594,5477.523971,-88407.420469
13430.337298,2220.617826,2960.823768,-92391.117059
13430.340529,-15988.448347,7846.182985,-88407.420469
13430.343790,-6809.894666,15248.242405,-69714.690318
13430.347063,-9622.677246,11251.130318,-65884.212828
13430.350336,-11103.089130,1036.288319,-79827.150892
13430.353609,3108.864956,3404.947333,-87794.544071
13430.356882,-10658.965565,4885.359217,-81206.122788
13430.360155,-2960.823768,2812.782580,-60827.982541
13430.363428,11399.171507,13175.665768,-43207.786087
13430.366701,4589.276840,17172.777854,-57457.162350
13430.369974,-16432.571912,-3108.864956,-107406.588820
13430.373247,-11843.295072,-5477.523971,-116293.296596
13430.376520,8882.471304,-11251.130318,-110777.409011
13430.379793,3552.988522,11843.295072,-54545.999458
13430.383066,5181.441594,22206.178260,-39070.870398
13430.386339,-9770.718434,740.205942,-86415.572174
13430.389612,-8438.347739,-12139.377449,-107559.807919
13430.392886,6809.894666,-4293.194464,-76762.768900
13430.396159,-1628.453072,5329.482782,-62053.735338
13430.399432,-6957.935855,13471.748144,-49949.426470
13430.402705,4293.194464,148.041188,-75843.454302
13430.405978,4293.194464,-3404.947333,-92544.336158
13430.409251,1036.288319,-1628.453072,-67109.965625
13430.412524,13471.748144,13619.789333,-42594.909689
13430.415797,2812.782580,10955.047942,-42135.252390
13430.419070,9326.594869,2812.782580,-54392.780358
13430.422343,11991.336260,-2072.576638,-70634.004916
13430.425616,-1924.535449,-4293.194464,-69561.471218
13430.428889,2516.700203,1184.329507,-63279.488135
13430.432162,10658.965565,6661.853478,-74004.825107
13430.435435,2960.823768,7698.141797,-65884.212828
13430.438708,-8290.306550,7254.018232,-80440.027290
13430.441981,2220.617826,1924.535449,-87334.886772
13430.445254,3552.988522,-2812.782580,-83504.409282
13430.448555,3997.112087,10807.006753,-66650.308326
13430.451857,-16284.530724,7550.100608,-78907.836294
13430.455159,-20281.642811,16284.530724,-88867.077768
13430.458460,-18357.107362,-4737.318029,-125180.004373
13430.461762,-4441.235652,-4293.194464,-106793.712421
13430.465064,-2516.700203,22650.301825,-42594.909689
13430.468365,-2812.782580,15988.448347,-41982.033290
13430.471667,-7105.977043,-148.041188,-90246.049664
13430.474968,-18061.024985,-3997.112087,-104188.987728
13430.478270,-4737.318029,-148.041188,-98519.881043
13430.481572,4737.318029,15248.242405,-55005.656756
13430.484873,-11547.212695,16432.571912,-43820.662486
13430.488175,4737.318029,6365.771101,-70940.443115
13430.491477,-7846.182985,-2368.659014,-85189.819378
13430.494778,-6365.771101,4885.359217,-83044.751983
13430.498080,3997.112087,15248.242405,-63432.707234
13430.501382,4589.276840,7550.100608,-60521.544342
13430.504683,-6957.935855,5477.523971,-78141.740796
13430.507985,-9622.677246,8142.265362,-92544.336158
13430.511286,1628.453072,8882.471304,-85496.257577
13430.514588,-5033.400406,10658.965565,-76303.111601
13430.517890,-9770.718434,12287.418637,-69255.033019
13430.521191,296.082377,11547.212695,-73851.606007
13430.524493,-11547.212695,2072.576638,-82738.313784
13430.527795,-5773.606348,5329.482782,-85802.695776
13430.531096,-7105.977043,12139.377449,-73238.729609
13430.534398,-19985.560434,17468.860231,-85036.600278
13430.537700,-10955.047942,-2220.617826,-111083.847210
13430.541001,10658.965565,-10214.842000,-91778.240660
13430.544303,14656.077652,2072.576638,-39683.746796
13430.547604,-1924.535449,13027.624579,-27426.218828
13430.550906,148.041188,-2220.617826,-81206.122788
13430.554128,-9622.677246,-888.247130,-99745.633840
13430.557350,7254.018232,-2368.659014,-94382.965354
13430.560571,5477.523971,9770.718434,-52860.589362
13430.563793,-4589.276840,12139.377449,-38611.213099
13430.567015,8882.471304,-4589.276840,-78448.178995
13430.570237,-1184.329507,-148.041188,-87028.448573
13430.573458,-13027.624579,296.082377,-89633.173266
13430.576680,9326.594869,10955.047942,-62513.392637
13430.579902,15544.324782,12731.542202,-55465.314055
13430.583124,-5329.482782,4145.153275,-70021.128517
13430.586345,25611.125593,-1332.370696,-91471.802461
13430.589567,12731.542202,-888.247130,-79367.493593
13430.592789,2516.700203,-1480.411884,-64352.021832
13430.596011,12879.583391,3404.947333,-58529.696047
13430.599232,4293.194464,-4293.194464,-75690.235202
13430.602454,2072.576638,-148.041188,-83351.190182
13430.605676,-4293.194464,-2072.576638,-83504.409282
13430.608898,3849.070898,5773.606348,-75383.797003
13430.612119,-8734.430116,14656.077652,-70940.443115
13430.615341,-7994.224174,2072.576638,-89479.954166
13430.618563,-2220.617826,-9326.594869,-98366.661943
13430.621785,2812.782580,4737.318029,-69255.033019
13430.625007,-7402.059420,22946.384202,-58682.915147
13430.628228,-30052.361245,6365.771101,-96528.032748
13430.631450,-13323.706956,2664.741391,-117978.706692
13430.634672,-4885.359217,-1184.329507,-119970.554987
13430.637894,-740.205942,10658.965565,-64045.583633
13430.641115,-3849.070898,22502.260637,-43054.566988
13430.644337,-6957.935855,4737.318029,-79520.712692
13430.647559,-14063.912898,-3404.947333,-102963.234931
13430.650781,-7550.100608,5329.482782,-96374.813648
13430.654002,4293.194464,11991.336260,-65577.774629
13430.657261,0.000000,12583.501014,-50409.083768
13430.660519,-10510.924376,9326.594869,-70634.004916
13430.663778,-5773.606348,888.247130,-94536.184453
13430.667037,-4885.359217,3108.864956,-95761.937250
13430.670295,-9326.594869,13915.871710,-74464.482406
13430.673554,-2516.700203,14211.954086,-62053.735338
13430.676812,-7105.977043,14359.995275,-67109.965625
13430.680071,0.000000,8882.471304,-79061.055394
13430.683330,-11547.212695,6365.771101,-81206.122788
13430.686588,-3552.988522,9474.636058,-79061.055394
13430.689847,-148.041188,11843.295072,-70174.347617
13430.693105,-10362.883188,7402.059420,-68948.594820
13430.696364,-18209.066173,13027.624579,-77988.521696
13430.699622,-12435.459826,5625.565159,-99285.976541
13430.702881,-1924.535449,888.247130,-97294.128246
13430.706140,-8438.347739,-8586.388927,-89326.735067
13430.709398,13323.706956,-3256.906145,-53167.027561
13430.712657,-8882.471304,11399.171507,-38457.994000
13430.715915,-3404.947333,-1036.288319,-71859.757712
13430.719174,9918.759623,-1628.453072,-91625.021561
13430.722432,9326.594869,9622.677246,-68335.718422
13430.725691,3997.112087,6809.894666,-52247.712964
13430.728950,10066.800811,3997.112087,-45965.729880
13430.732208,11103.089130,-2516.700203,-73851.606007
13430.761762,-2664.741391,-1184.329507,-74924.139704
13430.765046,-5181.441594,2812.782580,-68795.375720
13430.768329,4737.318029,-3997.112087,-84423.723880
13430.771613,-5477.523971,1036.288319,-83044.751983
13430.774897,888.247130,9918.759623,-73238.729609
13430.778181,13619.789333,6069.688724,-71246.881314
13430.781464,3552.988522,6957.935855,-62973.049936
13430.784748,-11843.295072,444.123565,-62666.611736
13430.788032,-12435.459826,13175.665768,-82585.094684
13430.791316,-6957.935855,-296.082377,-106487.274222
13430.794599,-2664.741391,5773.606348,-80899.684589
13430.797883,4293.194464,23094.425390,-34933.954709
13430.801167,-6217.729913,12287.418637,-48570.454573
13430.804451,-7402.059420,9622.677246,-64811.679131
13430.807734,-11991.336260,-4737.318029,-98826.319242
13430.811018,-1332.370696,3997.112087,-91471.802461
13430.814302,-2368.659014,17024.736666,-56078.190454
13430.817586,-8142.265362,18209.066173,-51788.055665
13430.820869,-5329.482782,3849.070898,-77069.207099
13430.824153,4293.194464,4145.153275,-80286.808190
13430.827437,4885.359217,-4737.318029,-76456.330700
13430.830721,-1776.494261,8734.430116,-53013.808462
13430.834004,1776.494261,13915.871710,-45812.510780
13430.837288,-1036.288319,6365.771101,-73545.167808
13430.840590,-9918.759623,7994.224174,-85189.819378
13430.843892,3849.070898,9918.759623,-73545.167808
13430.847194,-5033.400406,15544.324782,-66037.431928
13430.850496,-7105.977043,11843.295072,-70787.224015
13430.853798,-1776.494261,4293.194464,-83504.409282
13430.857099,-2516.700203,444.123565,-87794.544071
13430.860401,-1036.288319,9474.636058,-72779.072310
13430.863703,740.205942,17764.942608,-52860.589362
13430.867005,-6661.853478,19393.395680,-56231.409553
13430.870307,-14656.077652,-6957.935855,-108172.684318
13430.873609,-5625.565159,-18949.272115,-125639.661672
13430.876911,-4737.318029,8142.265362,-74311.263306
13430.880213,-6809.894666,17764.942608,-43667.443386
13430.883515,6069.688724,16580.613101,-59142.572446
13430.886816,-16580.613101,-2812.782580,-97600.566445
13430.890118,-3997.112087,-7550.100608,-100511.729338
13430.893420,10807.006753,-1776.494261,-59449.010645
13430.896722,148.041188,6365.771101,-37845.117601
13430.900024,4293.194464,14952.160028,-59449.010645
13430.903326,444.123565,-1480.411884,-77069.207099
13430.906628,-5625.565159,1480.411884,-89326.735067
13430.909930,-6809.894666,12583.501014,-71093.662214
13430.913232,14508.036463,11843.295072,-60674.763442
13430.916534,-2220.617826,6661.853478,-69561.471218
13430.919835,-2516.700203,1776.494261,-82278.656485
13430.923137,12139.377449,-6661.853478,-79827.150892
13430.926439,-592.164754,-1036.288319,-77528.864398
13430.929741,-5477.523971,5773.606348,-65271.336430
13430.933043,5773.606348,6513.812290,-72012.976812
13430.936345,592.164754,3404.947333,-81206.122788
13430.939647,8438.347739,2368.659014,-76456.330700
13430.942949,5329.482782,13619.789333,-55312.094956
13430.946263,-7698.141797,8438.347739,-48417.235474
13430.949577,-19985.560434,2960.823768,-80440.027290
13430.952890,-5477.523971,-3256.906145,-109858.094413
13430.956204,-2368.659014,8142.265362,-78907.836294
13430.959518,2220.617826,28275.866984,-29264.848024
13430.962832,4589.276840,17912.983796,-34474.297410
13430.966146,-18949.272115,3108.864956,-73085.510509
13430.969460,-4737.318029,-2220.617826,-102503.577632
13430.972774,1332.370696,-888.247130,-76915.987999
13430.976088,-4737.318029,22798.343014,-43514.224286
13430.979401,1332.370696,19985.560434,-40449.842294
13430.982715,1776.494261,3997.112087,-73085.510509
13430.986029,-8882.471304,-2072.576638,-94229.746254
13430.989343,2664.741391,13471.748144,-79520.712692
13430.992657,2960.823768,12879.583391,-63126.269035
13430.995971,-12583.501014,12435.459826,-66650.308326
13430.999285,-3404.947333,3404.947333,-91165.364262
13431.002599,4293.194464,4589.276840,-86262.353075
13431.005913,296.082377,8438.347739,-78754.617194
13431.009226,-2516.700203,16728.654289,-63126.269035
13431.012540,296.082377,9918.759623,-75077.358804
13431.015854,-9030.512492,5181.441594,-87947.763170
13431.019168,-13471.748144,6217.729913,-89786.392366
13431.022482,-17764.942608,3552.988522,-97600.566445
13431.025796,-8142.265362,4293.194464,-96374.813648
13431.029110,13027.624579,-1332.370696,-68642.156621
13431.032424,7994.224174,7846.182985,-47191.482677
13431.035738,-5773.606348,7698.141797,-58070.038748
13431.039051,3849.070898,-10066.800811,-97753.785545
13431.042365,-3108.864956,-4737.318029,-104035.768628
13431.045679,2072.576638,8882.471304,-81052.903688
13431.048993,18653.189738,12287.418637,-53933.123059
13431.052314,-2516.700203,5773.606348,-61287.639840
13431.055635,-2960.823768,-6661.853478,-86415.572174
13431.058957,10362.883188,-740.205942,-91931.459760
13431.062278,1332.370696,2072.576638,-85802.695776
13431.065599,-6217.729913,9770.718434,-61440.858940
13431.068920,1036.288319,10807.006753,-68335.718422
13431.072241,5625.565159,5921.647536,-87641.324971
13431.075562,1628.453072,740.205942,-82738.313784
13431.078883,4145.153275,1036.288319,-77988.521696
13431.082205,-3108.864956,1628.453072,-71859.757712
13431.085526,-4589.276840,1628.453072,-72012.976812
13431.088847,5329.482782,-1628.453072,-80746.465489
13431.092168,1924.535449,2812.782580,-78754.617194
13431.095489,-4145.153275,5033.400406,-71859.757712
13431.098810,6809.894666,1184.329507,-68182.499322
13431.102131,444.123565,4885.359217,-78754.617194
13431.105453,8586.388927,7105.977043,-69714.690318
13431.108774,-16728.654289,10066.800811,-77375.645298
13431.112095,-18209.066173,888.247130,-94995.841752
13431.115416,2368.659014,4293.194464,-81818.999186
13431.118737,6661.853478,19097.313304,-39990.184996
13431.122058,1480.411884,15988.448347,-34474.297410
13431.125379,-8734.430116,9178.553681,-48723.673673
13431.128701,-7846.182985,-1924.535449,-88713.858668
13431.132022,-7550.100608,-1480.411884,-92850.774358
13431.135343,1332.370696,16284.530724,-63126.269035
13431.138664,296.082377,18357.107362,-55005.656756
13431.141985,-9770.718434,11251.130318,-68795.375720
13431.145306,-5033.400406,5329.482782,-86722.010374
13431.148628,-5329.482782,592.164754,-89173.515967
13431.151949,-3404.947333,13619.789333,-64198.802732
13431.155270,-8438.347739,15692.365970,-55465.314055
13431.158595,-9770.718434,9770.718434,-80440.027290
13431.161919,-4885.359217,6513.812290,-82585.094684
13431.165244,1332.370696,8142.265362,-86415.572174
13431.168569,-7254.018232,9030.512492,-69408.252119
13431.171894,-5181.441594,12435.459826,-63585.926334
13431.175219,-7550.100608,5773.606348,-73851.606007
13431.178543,4293.194464,-7994.224174,-85343.038477
13431.181868,-592.164754,-1480.411884,-81818.999186
13431.185193,22502.260637,14804.118840,-43514.224286
13431.188518,296.082377,9622.677246,-48264.016374
13431.191843,-9918.759623,-592.164754,-99132.757441
13431.195167,2220.617826,-11251.130318,-125333.223473
13431.198492,-4589.276840,4293.194464,-80440.027290
13431.201817,-444.123565,14952.160028,-60674.763442
13431.205142,-296.082377,13471.748144,-58376.476948
13431.208467,-3701.029710,-5329.482782,-100052.072039
13431.211791,-14063.912898,-10955.047942,-107713.027019
13431.215116,3997.112087,1184.329507,-80133.589091
13431.218441,-6513.812290,15692.365970,-75383.797003
13431.221766,-5033.400406,11103.089130,-55465.314055
13431.225091,148.041188,5181.441594,-80746.465489
13431.228416,3256.906145,-444.123565,-98213.442844
13431.231740,7698.141797,4145.153275,-74924.139704
13431.235065,6809.894666,3552.988522,-60368.325242
13431.238390,-8586.388927,3552.988522,-75077.358804
13431.241715,4441.235652,888.247130,-79827.150892
13431.245040,7698.141797,-3849.070898,-96068.375449
13431.248364,-1628.453072,2664.741391,-82738.313784
13431.251689,-4293.194464,17468.860231,-64964.898230
13431.255014,-11991.336260,7994.224174,-78448.178995
13431.258339,-4145.153275,-4885.359217,-100511.729338
13431.261664,1184.329507,-3404.947333,-94536.184453
13431.264914,1332.370696,14952.160028,-68029.280222
13431.268164,-27683.702231,15988.448347,-61900.516238
13431.271414,-10510.924376,6217.729913,-98826.319242
13431.274664,-1036.288319,-592.164754,-107253.369720
13431.277914,-6661.853478,2220.617826,-98060.223744
13431.281164,-12139.377449,15840.407159,-54545.999458
13431.284415,-10066.800811,12879.583391,-58989.353346
13431.287665,-10066.800811,1924.535449,-96068.375449
13431.290915,-5329.482782,6513.812290,-100052.072039
13431.294165,-7846.182985,12287.418637,-71400.100414
13431.297415,-7254.018232,11547.212695,-72625.853210
13431.300665,-6365.771101,9918.759623,-64045.583633
13431.303916,-740.205942,6365.771101,-83504.409282
13431.307166,-9326.594869,5033.400406,-91165.364262
13431.310416,-3108.864956,19245.354492,-73545.167808
13431.313666,-6365.771101,13027.624579,-64811.679131
13431.316916,-13619.789333,17024.736666,-65271.336430
13431.320166,296.082377,6217.729913,-79520.712692
13431.323416,-7550.100608,6069.688724,-86415.572174
13431.326667,-17172.777854,6365.771101,-76303.111601
13431.329917,13915.871710,5921.647536,-61594.078039
13431.333167,444.123565,12731.542202,-53167.027561
13431.336417,-9326.594869,11843.295072,-68948.594820
13431.339667,-148.041188,1332.370696,-82278.656485
13431.342917,-2812.782580,-10955.047942,-111849.942708
13431.346167,-6809.894666,2812.782580,-89173.515967
13431.349418,888.247130,12435.459826,-55924.971354
13431.352668,-4145.153275,10510.924376,-64045.583633
13431.355918,-7105.977043,-296.082377,-88713.858668
13431.359168,-8586.388927,-9326.594869,-97140.909146
13431.362418,-1924.535449,-5921.647536,-84270.504780
13431.365668,-592.164754,6957.935855,-59449.010645
13431.368862,2516.700203,10214.842000,-60981.201641
13431.372055,-14508.036463,-1480.411884,-78448.178995
13431.375249,-8438.347739,6957.935855,-85343.038477
13431.378443,3701.029710,3552.988522,-87334.886772
13431.381636,-4441.235652,5033.400406,-76609.549800
13431.384830,-7105.977043,888.247130,-68488.937521
13431.388023,3404.947333,-2072.576638,-74311.263306
13431.391217,444.123565,-2368.659014,-69867.909418
13431.394411,296.082377,6809.894666,-69867.909418
13431.397604,13619.789333,3997.112087,-65118.117330
13431.400798,5033.400406,7254.018232,-63279.488135
13431.403991,-6513.812290,16432.571912,-61287.639840
13431.407185,5773.606348,-6957.935855,-84883.381178
13431.410379,6661.853478,-5477.523971,-84270.504780
13431.413572,-2812.782580,1332.370696,-77835.302597
13431.416766,2960.823768,20873.807564,-44433.538884
13431.419959,-4589.276840,26203.290347,-44280.319784
13431.423153,-3108.864956,7402.059420,-89173.515967
13431.426347,1036.288319,-6809.894666,-105261.521425
13431.429540,-8882.471304,7550.100608,-78601.398095
13431.432734,1332.370696,16728.654289,-60061.887043
13431.435927,1628.453072,14508.036463,-66497.089226
13431.439121,-14656.077652,7105.977043,-95915.156350
13431.442315,-10214.842000,-888.247130,-107866.246118
13431.445508,-5921.647536,2368.659014,-82585.094684
13431.448702,-19097.313304,16284.530724,-58529.696047
13431.451895,-6217.729913,11547.212695,-61900.516238
13431.455089,-3108.864956,4885.359217,-85343.038477
13431.458283,-17172.777854,2368.659014,-94076.527154
13431.461476,-5477.523971,15840.407159,-69867.909418
13431.464670,1332.370696,13471.748144,-60827.982541
13431.467863,-5625.565159,13175.665768,-70634.004916
13431.471085,-6809.894666,6069.688724,-79980.369991
13431.474306,9622.677246,444.123565,-82585.094684
13431.477527,-2220.617826,14804.118840,-58529.696047
13431.480748,-13767.830521,13175.665768,-62973.049936
13431.483970,-2072.576638,-6365.771101,-96681.251848
13431.487191,-1480.411884,-10362.883188,-93463.650756
13431.490412,-1924.535449,5181.441594,-93157.212557
13431.493633,-8438.347739,12287.418637,-60521.544342
13431.496854,3701.029710,12287.418637,-62666.611736
13431.500076,-3108.864956,-7105.977043,-85496.257577
13431.503297,-3404.947333,-7402.059420,-80593.246390
13431.506518,6365.771101,-1184.329507,-75537.016103
13431.509739,11399.171507,9918.759623,-51941.274764
13431.512961,1776.494261,9918.759623,-54852.437657
13431.516182,-3997.112087,3552.988522,-74311.263306
13431.519403,11399.171507,-592.164754,-83964.066581
13431.522624,1776.494261,4441.235652,-67416.403824
13431.525845,3997.112087,10214.842000,-54392.780358
13431.529067,4293.194464,6513.812290,-55771.752254
13431.532288,-1480.411884,-3404.947333,-82431.875585
13431.535509,3256.906145,-6661.853478,-85343.038477
13431.538730,8142.265362,1480.411884,-68795.375720
13431.541952,-888.247130,7846.182985,-64658.460031
13431.545173,2220.617826,888.247130,-73851.606007
13431.548394,3552.988522,2368.659014,-71706.538613
13431.551615,-3108.864956,6513.812290,-67416.403824
13431.554837,-20577.725188,10510.924376,-77375.645298
13431.558058,-8142.265362,-7402.059420,-100205.291138
13431.561279,-9622.677246,4589.276840,-82278.656485
13431.564500,-2072.576638,22798.343014,-46118.948980
13431.567721,4589.276840,19985.560434,-54239.561258
13431.570943,-16432.571912,7254.018232,-72472.634111
13431.574117,-3108.864956,592.164754,-91778.240660
13431.577291,3701.029710,1184.329507,-73545.167808
13431.580466,-7994.224174,16728.654289,-50868.741067
13431.583640,-1924.535449,21021.848753,-49796.207370
13431.586815,3552.988522,1924.535449,-79214.274493
13431.589989,-8142.265362,3552.988522,-87028.448573
13431.593163,-2960.823768,7698.141797,-70327.566716
13431.596338,6513.812290,10955.047942,-57303.943250
13431.599512,-13323.706956,11251.130318,-72779.072310
13431.602686,-11399.171507,13619.789333,-75077.358804
13431.605861,0.000000,2368.659014,-89939.611465
13431.609035,-10066.800811,6217.729913,-81512.560987
13431.612210,-5181.441594,11251.130318,-68642.156621
13431.615384,-12435.459826,13175.665768,-75996.673402
13431.618558,-19985.560434,3997.112087,-87488.105872
13431.621733,-14508.036463,-2664.741391,-96221.594549
13431.624907,148.041188,-13027.624579,-91012.145162
13431.628081,7846.182985,1184.329507,-50409.083768
13431.631256,0.000000,12139.377449,-31869.572717
13431.634430,-1480.411884,1776.494261,-73851.606007
13431.637605,10362.883188,-3552.988522,-94995.841752
13431.640779,8586.388927,-888.247130,-88560.639569
13431.643953,5033.400406,592.164754,-60061.887043
13431.647128,1628.453072,11251.130318,-43820.662486
13431.650265,13619.789333,1776.494261,-70327.566716
13431.653403,5477.523971,148.041188,-93463.650756
13431.656541,-1184.329507,5921.647536,-80286.808190
13431.659678,8734.430116,6217.729913,-61900.516238
13431.662816,7846.182985,9918.759623,-53167.027561
13431.665954,8438.347739,5181.441594,-61594.078039
13431.669091,3997.112087,-7550.100608,-93157.212557
13431.672229,-4441.235652,-7550.100608,-99285.976541
13431.675366,1184.329507,-2960.823768,-79827.150892
13431.678504,6365.771101,4293.194464,-64505.240932
13431.681642,-9918.759623,12731.542202,-77682.083497
13431.684779,-13027.624579,3997.112087,-104801.864126
13431.687917,2664.741391,-3404.947333,-104495.425927
13431.691055,-5625.565159,9622.677246,-68642.156621
13431.694192,-19985.560434,20429.683999,-56844.285952
13431.697330,-21317.931130,4293.194464,-90246.049664
13431.700467,-18653.189738,-6217.729913,-132687.740254
13431.703605,-7402.059420,9918.759623,-98519.881043
13431.706743,5329.482782,21910.095883,-47038.263577
13431.709880,-19097.313304,17024.736666,-49030.111872
13431.713018,-20873.807564,10362.883188,-74311.263306
13431.716156,-3552.988522,-4441.235652,-106487.274222
13431.719293,-6513.812290,4589.276840,-78448.178995
13431.722431,-5625.565159,22206.178260,-36772.583904
13431.725569,740.205942,7846.182985,-56844.285952
13431.728706,-7550.100608,2516.700203,-83351.190182
13431.731844,-7105.977043,148.041188,-89020.296868
13431.734981,6069.688724,5773.606348,-78448.178995
13431.738119,-7105.977043,25759.166782,-47957.578175
13431.741257,296.082377,18505.148550,-53933.123059
13431.744394,-3108.864956,2812.782580,-84883.381178
13431.747532,296.082377,8142.265362,-85649.476676
13431.750645,-8586.388927,11399.171507,-75230.577904
13431.753757,-2960.823768,2220.617826,-70327.566716
13431.756870,3552.988522,8734.430116,-63279.488135
13431.759982,18357.107362,12287.418637,-55618.533155
13431.763095,592.164754,3404.947333,-71706.538613
13431.766208,-6957.935855,-2072.576638,-104801.864126
13431.769320,6957.935855,-3404.947333,-97447.347346
13431.772433,9178.553681,-3849.070898,-96221.594549
13431.775545,-5477.523971,14508.036463,-69255.033019
13431.778658,740.205942,4885.359217,-79673.931792
13431.781771,-11843.295072,-9178.553681,-105721.178724
13431.784883,-13915.871710,-1628.453072,-99285.976541
13431.787996,2960.823768,1480.411884,-96374.813648
13431.791108,2072.576638,1332.370696,-80286.808190
13431.794221,-6069.688724,13767.830521,-60981.201641
13431.797334,-4589.276840,2664.741391,-79061.055394
13431.800446,1776.494261,-5329.482782,-95302.279951
13431.803559,-2516.700203,-1776.494261,-74004.825107
13431.806672,4885.359217,-3552.988522,-79673.931792
13431.809784,-2368.659014,3404.947333,-68948.594820
13431.812897,5625.565159,3404.947333,-71553.319513
13431.816009,-592.164754,4441.235652,-76149.892501
13431.819122,-15988.448347,7254.018232,-78294.959896
13431.822235,14211.954086,5329.482782,-73085.510509
13431.825347,16728.654289,6365.771101,-70634.004916
13431.828460,-10510.924376,23538.548956,-52247.712964
13431.831572,-14804.118840,8438.347739,-77528.864398
13431.834685,-9326.594869,-5921.647536,-110777.409011
13431.837798,-8438.347739,11547.212695,-88867.077768
13431.840910,-1184.329507,19837.519246,-54699.218557
13431.844023,-2664.741391,10955.047942,-58070.038748
13431.847135,-23242.466579,6661.853478,-76609.549800
13431.850231,-10807.006753,888.247130,-96528.032748
13431.853326,4293.194464,592.164754,-79214.274493
13431.856421,-6069.688724,20133.601622,-48417.235474
13431.859516,-11991.336260,6217.729913,-58376.476948
13431.862611,-8290.306550,9622.677246,-76303.111601
13431.865706,-14211.954086,6957.935855,-101124.605736
13431.868801,-3849.070898,5033.400406,-84576.942979
13431.871896,-3256.906145,20873.807564,-56844.285952
13431.874991,-7698.141797,13619.789333,-60827.982541
13431.878086,-5329.482782,4145.153275,-82585.094684
13431.881181,-10066.800811,3256.906145,-95915.156350
13431.884276,296.082377,5477.523971,-86109.133975
13431.887371,-3108.864956,16728.654289,-56231.409553
13431.890466,-13767.830521,4441.235652,-67263.184724
13431.893562,-1924.535449,-14063.912898,-90858.926063
13431.896657,13471.748144,-9030.512492,-69561.471218
13431.899752,-2072.576638,8438.347739,-66343.870127
13431.902847,-8290.306550,17912.983796,-42441.690589
13431.905942,3404.947333,7105.977043,-69714.690318
13431.909037,5033.400406,-8290.306550,-95302.279951
13431.912132,3997.112087,-3404.947333,-72472.634111
13431.915227,7402.059420,10066.800811,-44586.757984
13431.918322,10955.047942,12879.583391,-49949.426470
13431.921417,444.123565,6365.771101,-71706.538613
13431.924512,6365.771101,-148.041188,-91165.364262
13431.927607,9622.677246,3108.864956,-80593.246390
13431.930702,2812.782580,13619.789333,-51634.836565
13431.933797,3108.864956,6365.771101,-65118.117330
13431.936893,5625.565159,-5625.565159,-70174.347617
13431.939988,-4293.194464,-5477.523971,-92391.117059
13431.943083,5033.400406,-3404.947333,-85955.914876
13431.946178,-17468.860231,6809.894666,-76149.892501
13431.949261,-7994.224174,9770.718434,-85955.914876
13431.952345,5033.400406,3849.070898,-91012.145162
13431.955428,-3552.988522,3404.947333,-85649.476676
13431.958512,-22206.178260,17172.777854,-77682.083497
13431.961595,-17024.736666,2960.823768,-95455.499051
13431.964679,-14508.036463,-6217.729913,-109091.998915
13431.967762,-14508.036463,13767.830521,-71859.757712
13431.970846,1332.370696,21021.848753,-50255.864669
13431.973929,-14508.036463,9770.718434,-69867.909418
13431.977013,-19097.313304,10362.883188,-79827.150892
13431.980096,-1628.453072,-3256.906145,-87794.544071
13431.983180,592.164754,6069.688724,-63279.488135
13431.986263,-444.123565,16580.613101,-34627.516510
13431.989347,-8734.430116,12731.542202,-50715.521968
13431.992430,-1628.453072,4293.194464,-72625.853210
13431.995514,592.164754,3997.112087,-70174.347617
13431.998597,2960.823768,11695.253884,-54852.437657
13432.001681,-444.123565,20577.725188,-44127.100685
13432.004764,3997.112087,9770.718434,-60215.106143
13432.007848,1776.494261,9178.553681,-63279.488135
13432.010931,-11251.130318,5773.606348,-77375.645298
13432.014015,15248.242405,4441.235652,-66497.089226
13432.017098,8734.430116,9326.594869,-47651.139976
13432.020182,-12435.459826,16876.695478,-63279.488135
13432.023265,-4441.235652,-3997.112087,-114148.229202
13432.026349,2516.700203,-11547.212695,-111083.847210
13432.029432,-9770.718434,-592.164754,-108325.903417
13432.032516,-2072.576638,11991.336260,-69255.033019
13432.035599,-740.205942,9770.718434,-72932.291410
13432.038683,-15396.283594,-3552.988522,-102350.358533
13432.041766,-3552.988522,-12435.459826,-109091.998915
13432.044850,1036.288319,3256.906145,-78601.398095
13432.047985,-5625.565159,9770.718434,-72932.291410
13432.051120,-2220.617826,11547.212695,-63739.145434
13432.054255,-3849.070898,-148.041188,-90552.487864
13432.057390,-1184.329507,3404.947333,-96987.690047
13432.060525,2664.741391,6513.812290,-66803.527426
13432.063660,-3108.864956,-3404.947333,-73238.729609
13432.066795,148.041188,4145.153275,-65118.117330
13432.069930,-592.164754,2664.741391,-72319.415011
13432.073065,-148.041188,-8142.265362,-83657.628382
13432.076200,5477.523971,6217.729913,-66343.870127
13432.079335,3108.864956,20133.601622,-49642.988270
13432.082470,-9918.759623,11695.253884,-57763.600549
13432.085605,-31088.649564,9770.718434,-81512.560987
13432.088740,2368.659014,-4145.153275,-98213.442844
13432.091875,2960.823768,2664.741391,-70021.128517
13432.095010,-2368.659014,26647.413912,-28805.190725
13432.098145,5625.565159,20429.683999,-50255.864669
13432.101280,2960.823768,3701.029710,-69714.690318
13432.104415,-7402.059420,0.000000,-83351.190182
13432.107550,2516.700203,13767.830521,-60827.982541
13432.110685,-2220.617826,13471.748144,-51634.836565
13432.113820,-10510.924376,13915.871710,-70634.004916
13432.116955,-13175.665768,592.164754,-104801.864126
13432.120090,-7402.059420,1480.411884,-103116.454031
13432.123225,-14952.160028,14211.954086,-84423.723880
13432.126360,-6957.935855,20873.807564,-66497.089226
13432.129495,-8142.265362,8882.471304,-81359.341888
13432.132630,-5329.482782,4589.276840,-93310.431656
13432.135765,-13471.748144,6661.853478,-78907.836294
13432.138900,-21169.889941,8290.306550,-82585.094684
13432.142035,-592.164754,5181.441594,-71859.757712
13432.145170,5625.565159,4589.276840,-64198.802732
13432.148290,-16284.530724,13915.871710,-65730.993728
13432.151409,-7550.100608,1776.494261,-92544.336158
13432.154529,-148.041188,-2368.659014,-106487.274222
13432.157648,-15248.242405,-4145.153275,-108479.122517
13432.160768,-1776.494261,13175.665768,-73085.510509
13432.163887,3849.070898,12287.418637,-61440.858940
13432.167007,-9770.718434,-740.205942,-83810.847481
13432.170126,-1924.535449,-6365.771101,-94229.746254
13432.173246,444.123565,-2072.576638,-98519.881043
13432.176365,-740.205942,7846.182985,-75537.016103
13432.179485,1776.494261,15544.324782,-56537.847752
13432.182604,-2960.823768,7846.182985,-78907.836294
13432.185724,-444.123565,5329.482782,-98060.223744
13432.188843,592.164754,4293.194464,-75843.454302
13432.191963,2220.617826,-1628.453072,-65884.212828
13432.195082,-2072.576638,5773.606348,-67569.622924
13432.198202,7402.059420,-2812.782580,-79367.493593
13432.201321,-9474.636058,3997.112087,-85189.819378
13432.204441,-14063.912898,7846.182985,-82738.313784
13432.207560,10807.006753,3256.906145,-74311.263306
13432.210680,296.082377,4589.276840,-68029.280222
13432.213799,-16580.613101,24278.754898,-53933.123059
13432.216919,-6217.729913,10066.800811,-77682.083497
13432.220038,-7254.018232,-8290.306550,-114761.105600
13432.223158,-17764.942608,12139.377449,-90246.049664
13432.226277,592.164754,23094.425390,-54852.437657
13432.229397,296.082377,13471.748144,-66190.651027
13432.232516,-18505.148550,10362.883188,-77835.302597
13432.235636,-6661.853478,6957.935855,-90246.049664
13432.238756,-7254.018232,3552.988522,-86415.572174
13432.241875,148.041188,12583.501014,-66956.746525
13432.244995,-7254.018232,10066.800811,-67876.061123
13432.248160,-5625.565159,3256.906145,-79673.931792
13432.251326,-7846.182985,8882.471304,-93616.869856
13432.254492,-3701.029710,10807.006753,-82278.656485
13432.257657,888.247130,12731.542202,-64658.460031
13432.260823,-9918.759623,20577.725188,-59142.572446
13432.263989,-10066.800811,10510.924376,-79214.274493
13432.267154,592.164754,-1776.494261,-77682.083497
13432.270320,-1184.329507,6217.729913,-73545.167808
13432.273486,-10362.883188,9030.512492,-73545.167808
13432.276651,-11843.295072,-7105.977043,-99132.757441
13432.279817,-3849.070898,-6809.894666,-92391.117059
13432.282983,592.164754,11399.171507,-61900.516238
13432.286148,0.000000,6809.894666,-69101.813920
13432.289314,-7994.224174,11695.253884,-66343.870127
13432.292480,1036.288319,-3404.947333,-81665.780087
13432.295645,296.082377,-9770.718434,-79980.369991
13432.298811,10807.006753,10214.842000,-52554.151163
13432.301977,10807.006753,12731.542202,-55312.094956
13432.305142,6661.853478,-5773.606348,-65884.212828
13432.308308,2664.741391,1480.411884,-67569.622924
13432.311474,2812.782580,148.041188,-58836.134246
13432.314640,14656.077652,4589.276840,-47038.263577
13432.317805,8586.388927,1332.370696,-54086.342159
13432.320971,-2812.782580,-1776.494261,-81052.903688
13432.324137,5625.565159,-6217.729913,-79061.055394
13432.327302,12879.583391,11251.130318,-75537.016103
13432.330468,-13619.789333,12287.418637,-73545.167808
13432.333634,2812.782580,444.123565,-94536.184453
13432.336799,3552.988522,5921.647536,-84423.723880
13432.339965,-19245.354492,15840.407159,-76915.987999
13432.343131,-17320.819043,9326.594869,-71553.319513
13432.346296,-7550.100608,4441.235652,-101277.824836
13432.349499,-16284.530724,2220.617826,-111237.066310
13432.352702,-14359.995275,13323.706956,-79980.369991
13432.355905,-296.082377,12731.542202,-59142.572446
13432.359108,-13915.871710,5033.400406,-69714.690318
13432.362311,-18061.024985,4441.235652,-84730.162079
13432.365514,-9770.718434,7105.977043,-84423.723880
13432.368717,9770.718434,6217.729913,-75843.454302
13432.371920,-3997.112087,8438.347739,-62666.611736
13432.375123,3108.864956,10955.047942,-64505.240932
13432.378327,-4589.276840,12583.501014,-65118.117330
13432.381530,4293.194464,10362.883188,-82125.437386
13432.384733,9622.677246,14804.118840,-75690.235202
13432.387936,-10955.047942,11991.336260,-76762.768900
13432.391139,-19541.436869,14804.118840,-85343.038477
13432.394342,-3256.906145,-5921.647536,-86415.572174
13432.397545,6513.812290,-3404.947333,-94842.622652
13432.400748,9326.594869,11843.295072,-60061.887043
13432.403951,2812.782580,12879.583391,-52247.712964
13432.407154,-12583.501014,-7402.059420,-91012.145162
13432.410357,-7402.059420,-4885.359217,-112462.819106
13432.413560,12731.542202,6809.894666,-78754.617194
13432.416763,-296.082377,5625.565159,-68948.594820
13432.419966,-2664.741391,7105.977043,-57610.381450
13432.423169,1332.370696,-2072.576638,-85496.257577
13432.426402,-4885.359217,-4737.318029,-104955.083226
13432.429634,-3108.864956,7402.059420,-80286.808190
13432.432866,5921.647536,5477.523971,-58070.038748
13432.436098,1924.535449,10510.924376,-63585.926334
13432.439330,-3256.906145,6069.688724,-77222.426198
13432.442562,2664.741391,-3701.029710,-84576.942979
13432.445795,-7402.059420,-5033.400406,-81052.903688
13432.449027,4737.318029,3849.070898,-63585.926334
13432.452259,1332.370696,9474.636058,-64505.240932
13432.455491,-11991.336260,9030.512492,-81665.780087
13432.458723,10658.965565,8734.430116,-93616.869856
13432.461956,-7254.018232,10955.047942,-71859.757712
13432.465188,-30644.525999,16580.613101,-78601.398095
13432.468420,-8142.265362,-148.041188,-106027.616923
13432.471652,-1628.453072,-3701.029710,-86722.010374
13432.474884,-20281.642811,7698.141797,-83504.409282
13432.478116,-5329.482782,30496.484810,-52094.493864
13432.481349,-2664.741391,15988.448347,-63279.488135
13432.484581,-10955.047942,-3108.864956,-88560.639569
13432.487813,888.247130,7698.141797,-75843.454302
13432.491045,-1184.329507,6661.853478,-73851.606007
13432.494277,-2516.700203,12583.501014,-55465.314055
13432.497509,-11991.336260,11695.253884,-58989.353346
13432.500742,-4145.153275,4145.153275,-77528.864398
13432.503974,-9622.677246,7402.059420,-74924.139704
13432.507206,8734.430116,18653.189738,-51021.960167
13432.510438,1776.494261,19393.395680,-43054.566988
13432.513670,-4145.153275,12731.542202,-64505.240932
13432.516903,-18505.148550,10362.883188,-86875.229473
13432.520135,-7698.141797,-3108.864956,-90552.487864
13432.523367,13619.789333,2664.741391,-70174.347617
13432.526599,18801.230927,15840.407159,-42441.690589
13432.529855,9178.553681,8882.471304,-36772.583904
13432.533112,-6957.935855,148.041188,-69255.033019
13432.536368,7698.141797,-3552.988522,-100052.072039
13432.539625,7550.100608,1480.411884,-79520.712692
13432.542881,-2812.782580,12731.542202,-54852.437657
13432.546137,-2368.659014,1628.453072,-71706.538613
13432.549394,148.041188,-1480.411884,-80133.589091
13432.552650,-12287.418637,-1184.329507,-101124.605736
13432.555906,1628.453072,1628.453072,-90705.706963
13432.559163,-7994.224174,4145.153275,-71859.757712
13432.562419,-8882.471304,11399.171507,-73391.948708
13432.565676,-4885.359217,1036.288319,-86415.572174
13432.568932,-4885.359217,-10066.800811,-95455.499051
13432.572188,-11695.253884,-3256.906145,-87334.886772
13432.575445,5033.400406,888.247130,-68335.718422
13432.578701,3997.112087,7105.977043,-68335.718422
13432.581957,-5625.565159,17468.860231,-73085.510509
13432.585214,12435.459826,-740.205942,-84117.285680
13432.588470,6513.812290,-2516.700203,-80133.589091
13432.591726,14063.912898,12435.459826,-45199.634382
13432.594983,1628.453072,18653.189738,-42135.252390
13432.598239,-7846.182985,2664.741391,-88254.201370
13432.601496,-10214.842000,4441.235652,-112462.819106
13432.604752,-7698.141797,15396.283594,-81206.122788
13432.608008,-1036.288319,10807.006753,-67876.061123
13432.611265,-8438.347739,11399.171507,-59449.010645
13432.614521,-5329.482782,6217.729913,-79214.274493
13432.617777,-10510.924376,-1332.370696,-94382.965354
13432.621034,-3997.112087,6957.935855,-78294.959896
13432.624290,-3552.988522,10066.800811,-67722.842023
13432.627547,-10955.047942,14656.077652,-65884.212828
13432.630803,-12879.583391,10510.924376,-83197.971083
13432.634078,-2812.782580,4589.276840,-96221.594549
13432.637354,-5477.523971,13767.830521,-83044.751983
13432.640629,-8882.471304,13915.871710,-70480.785816
13432.643905,-2368.659014,7105.977043,-71093.662214
13432.647180,4589.276840,3997.112087,-72012.976812
13432.650456,148.041188,10214.842000,-69714.690318
13432.653731,-10066.800811,592.164754,-87641.324971
13432.657007,-11547.212695,-7254.018232,-101277.824836
13432.660282,740.205942,10066.800811,-77222.426198
13432.663558,5329.482782,9770.718434,-74004.825107
13432.666833,-4737.318029,11103.089130,-69714.690318
13432.670109,-4145.153275,3256.906145,-83504.409282
13432.673384,-5625.565159,-8290.306550,-93770.088955
13432.676660,-444.123565,1036.288319,-74311.263306
13432.679935,2516.700203,14508.036463,-52554.151163
13432.683211,-3256.906145,4293.194464,-58989.353346
13432.686486,-11695.253884,7254.018232,-70174.347617
13432.689762,-740.205942,1628.453072,-83044.751983
13432.693037,11103.089130,-3997.112087,-74158.044206
13432.696313,-6513.812290,0.000000,-56384.628653
13432.699588,11547.212695,3701.029710,-52860.589362
13432.702864,6513.812290,8290.306550,-55312.094956
13432.706139,-9030.512492,15248.242405,-65577.774629
13432.709415,10658.965565,-444.123565,-87641.324971
13432.712690,2516.700203,5625.565159,-75843.454302
13432.715966,2812.782580,23538.548956,-49949.426470
13432.719241,-10955.047942,11399.171507,-66956.746525
13432.722517,-5625.565159,6365.771101,-74924.139704
13432.725792,-5921.647536,-296.082377,-116293.296596
13432.729068,-7550.100608,14211.954086,-90858.926063
13432.732343,-1036.288319,18061.024985,-58836.134246
13432.735619,-14656.077652,6365.771101,-75077.358804
13432.738856,-7846.182985,3701.029710,-93463.650756
13432.742094,-10066.800811,-2220.617826,-92697.555258
13432.745331,-5181.441594,5329.482782,-77069.207099
13432.748568,740.205942,10658.965565,-59295.791545
13432.751805,-9474.636058,13767.830521,-69255.033019
13432.755043,-9918.759623,8586.388927,-89786.392366
13432.758280,-2516.700203,3404.947333,-88254.201370
13432.761517,-444.123565,8290.306550,-78754.617194
13432.764754,-21910.095883,15692.365970,-69561.471218
13432.767992,-8882.471304,5921.647536,-72166.195912
13432.771229,8438.347739,-296.082377,-80440.027290
13432.774466,12731.542202,7550.100608,-64811.679131
13432.777704,8734.430116,5329.482782,-51941.274764
13432.780941,-2072.576638,5773.606348,-62513.392637
13432.784178,-1036.288319,2072.576638,-96987.690047
13432.787415,7994.224174,2516.700203,-97447.347346
13432.790653,-3849.070898,9326.594869,-79673.931792
13432.793890,3849.070898,6661.853478,-70480.785816
13432.797127,1184.329507,1480.411884,-68335.718422
13432.800365,-3108.864956,3997.112087,-82891.532884
13432.803602,-444.123565,2960.823768,-89633.173266
13432.806839,-1776.494261,4737.318029,-76609.549800
13432.810076,-3849.070898,8586.388927,-74158.044206
13432.813314,1184.329507,2516.700203,-84730.162079
13432.816551,1036.288319,-8290.306550,-87794.544071
13432.819788,-3849.070898,-10066.800811,-93616.869856
13432.823026,-7105.977043,2516.700203,-75843.454302
13432.826263,7994.224174,6513.812290,-68795.375720
13432.829500,-1776.494261,12287.418637,-69867.909418
13432.832737,-6661.853478,9030.512492,-74464.482406
13432.835975,-27239.578666,11399.171507,-87181.667672
13432.839212,-7846.182985,-148.041188,-101431.043935
13432.842471,0.000000,3552.988522,-77069.207099
13432.845730,-6513.812290,19837.519246,-39377.308597
13432.848989,-6217.729913,17172.777854,-57150.724151
13432.852248,-3256.906145,11695.253884,-71859.757712
13432.855507,-4885.359217,-1036.288319,-91625.021561
13432.858767,-7550.100608,5625.565159,-76303.111601
13432.862026,740.205942,17320.819043,-54545.999458
13432.865285,-9326.594869,9178.553681,-61440.858940
13432.868544,-8586.388927,3108.864956,-86875.229473
13432.871803,-3997.112087,6513.812290,-86875.229473
13432.875062,-2664.741391,6069.688724,-83504.409282
13432.878321,-7994.224174,12583.501014,-61440.858940
13432.881580,-4885.359217,20281.642811,-56537.847752
13432.884839,-9178.553681,9918.759623,-83044.751983
13432.888098,-592.164754,-2368.659014,-90246.049664
13432.891358,9178.553681,-2368.659014,-76762.768900
13432.894617,5181.441594,13619.789333,-51481.617466
13432.897876,-11251.130318,4293.194464,-69408.252119
13432.901135,-4441.235652,-5181.441594,-107253.369720
13432.904394,-10066.800811,-1480.411884,-102810.015832
13432.907653,2812.782580,9474.636058,-68642.156621
13432.910912,7994.224174,10955.047942,-64352.021832
13432.914171,-10214.842000,8438.347739,-70174.347617
13432.917430,-2812.782580,-7550.100608,-101737.482134
13432.920690,3404.947333,-2368.659014,-98673.100142
13432.923949,3108.864956,10807.006753,-71093.662214
13432.927208,3256.906145,7698.141797,-61287.639840
13432.930467,1924.535449,7254.018232,-62819.830836
13432.933726,-2960.823768,-1184.329507,-80746.465489
13432.936985,-6661.853478,-8290.306550,-86262.353075
13432.940244,13767.830521,740.205942,-73391.948708
13432.943503,-10955.047942,4885.359217,-62053.735338
13432.946780,7254.018232,8142.265362,-72472.634111
13432.950056,12731.542202,7254.018232,-77375.645298
13432.953332,-10066.800811,9326.594869,-71859.757712
13432.956609,-22650.301825,14359.995275,-82891.532884
13432.959885,-3849.070898,2664.741391,-99592.414740
13432.963162,-1628.453072,2516.700203,-84576.942979
13432.966438,3108.864956,14063.912898,-72319.415011
13432.969714,-2664.741391,23538.548956,-48110.797274
13432.972991,-10066.800811,14804.118840,-59295.791545
13432.976267,-1924.535449,3552.988522,-84730.162079
13432.979544,148.041188,6069.688724,-83197.971083
13432.982820,-11843.295072,4885.359217,-67109.965625
13432.986096,-1332.370696,13027.624579,-65884.212828
13432.989373,-11695.253884,4589.276840,-69255.033019
13432.992649,-10510.924376,5477.523971,-77835.302597
13432.995926,2072.576638,7402.059420,-75843.454302
13432.999202,-5477.523971,16580.613101,-59295.791545
13433.002479,-8882.471304,16284.530724,-59142.572446
13433.005755,-5773.606348,18505.148550,-65118.117330
13433.009031,-4293.194464,5033.400406,-82585.094684
13433.012308,1776.494261,-5921.647536,-87181.667672
13433.015584,19689.478057,-3404.947333,-53933.123059
13433.018861,18357.107362,9030.512492,-31869.572717
13433.022137,-148.041188,444.123565,-61287.639840
13433.025413,12879.583391,3701.029710,-68642.156621
13433.028690,7994.224174,-6365.771101,-86415.572174
13433.031966,7550.100608,3552.988522,-63279.488135
13433.035243,14804.118840,4589.276840,-47804.359075
13433.038519,-8142.265362,2072.576638,-75843.454302
13433.041795,-5477.523971,5921.647536,-108325.903417
13433.045072,-2960.823768,-6809.894666,-102503.577632
13433.048348,3108.864956,1332.370696,-89479.954166
13433.051587,-10214.842000,6809.894666,-76609.549800
13433.054825,1332.370696,-444.123565,-80440.027290
13433.058064,-10066.800811,-11991.336260,-89786.392366
13433.061302,-11399.171507,-10658.965565,-100358.510238
13433.064540,11547.212695,4441.235652,-80286.808190
13433.067779,-14656.077652,16432.571912,-56691.066852
13433.071017,-13619.789333,2368.659014,-72012.976812
13433.074256,3404.947333,-7254.018232,-89786.392366
13433.077494,1776.494261,3552.988522,-60827.982541
13433.080733,-10362.883188,11399.171507,-55924.971354
13433.083971,-1480.411884,23094.425390,-37845.117601
13433.087210,-7254.018232,17764.942608,-77375.645298
13433.090448,-8438.347739,5477.523971,-104188.987728
13433.093687,-592.164754,11399.171507,-81359.341888
13433.096925,-296.082377,14804.118840,-56537.847752
13433.100163,-3552.988522,9030.512492,-66190.651027
13433.103402,3997.112087,10510.924376,-75537.016103
13433.106640,-15692.365970,2812.782580,-87641.324971
13433.109879,0.000000,7105.977043,-78294.959896
13433.113117,-1628.453072,13175.665768,-63739.145434
13433.116356,-18801.230927,14656.077652,-66343.870127
13433.119594,-9030.512492,10362.883188,-75230.577904
13433.122833,-9918.759623,10066.800811,-81665.780087
13433.126071,-8438.347739,4293.194464,-79367.493593
13433.129310,5625.565159,1036.288319,-68795.375720
13433.132548,20873.807564,9030.512492,-55158.875856
13433.135786,-11695.253884,3404.947333,-69714.690318
13433.139025,7550.100608,6513.812290,-64198.802732
13433.142263,4293.194464,592.164754,-104342.206828
13433.145502,-1332.370696,1036.288319,-98060.223744
13433.148740,4441.235652,8586.388927,-72472.634111
13433.151979,296.082377,3849.070898,-77528.864398
13433.155237,-11251.130318,-6809.894666,-101584.263035
13433.158496,-2960.823768,3256.906145,-99285.976541
13433.161755,1184.329507,-3404.947333,-97600.566445
13433.165014,-2368.659014,9030.512492,-70787.224015
13433.168273,1184.329507,7846.182985,-71400.100414
13433.171531,-7105.977043,-5625.565159,-88407.420469
13433.174790,-4441.235652,-11399.171507,-93157.212557
13433.178049,-3404.947333,-6957.935855,-87488.105872
13433.181308,8142.265362,4885.359217,-70174.347617
13433.184566,-12731.542202,16876.695478,-59295.791545
13433.187825,1776.494261,5329.482782,-74464.482406
13433.191084,-1628.453072,-6069.688724,-84270.504780
13433.194343,-10362.883188,-3108.864956,-92391.117059
13433.197601,7402.059420,13027.624579,-54392.780358
13433.200860,6513.812290,22058.137072,-32482.449115
13433.204119,-5625.565159,13027.624579,-63892.364533
13433.207378,-148.041188,5181.441594,-94536.184453
13433.210637,-1036.288319,8142.265362,-77988.521696
13433.213895,-1332.370696,13027.624579,-62666.611736
13433.217154,3997.112087,17024.736666,-58529.696047
13433.220413,-148.041188,7105.977043,-78907.836294
13433.223672,-11695.253884,2368.659014,-93923.308055
13433.226930,-9474.636058,9474.636058,-84423.723880
13433.230189,-14211.954086,16876.695478,-79980.369991
13433.233464,-12879.583391,20873.807564,-73698.386908
13433.236739,-5921.647536,8734.430116,-97140.909146
13433.240014,-17468.860231,13323.706956,-104648.645027
13433.243289,-19837.519246,10658.965565,-97600.566445
13433.246564,-5477.523971,-1332.370696,-93770.088955
13433.249839,-2072.576638,-10362.883188,-86415.572174
13433.253114,-2960.823768,-6957.935855,-94382.965354
13433.256389,2220.617826,10362.883188,-64198.802732
13433.259664,4441.235652,9770.718434,-58989.353346
13433.262939,-3108.864956,740.205942,-73851.606007
13433.266214,13619.789333,-5773.606348,-82738.313784
13433.269489,4737.318029,-3552.988522,-77222.426198
13433.272764,-2072.576638,9178.553681,-55465.314055
13433.276038,5773.606348,12731.542202,-58070.038748
13433.279313,-740.205942,2220.617826,-76149.892501
13433.282588,-296.082377,2664.741391,-80899.684589
13433.285863,-5921.647536,888.247130,-82738.313784
13433.289138,0.000000,2664.741391,-71706.538613
13433.292413,7698.141797,-4441.235652,-71400.100414
13433.295688,8734.430116,8142.265362,-69561.471218
13433.298963,-13471.748144,11399.171507,-72779.072310
13433.302238,19689.478057,2812.782580,-83044.751983
13433.305513,4145.153275,7402.059420,-71859.757712
13433.308788,-4441.235652,16728.654289,-51021.960167
13433.312063,-9918.759623,17616.901420,-64045.583633
13433.315338,-3552.988522,-444.123565,-103422.892230
13433.318613,-22502.260637,2516.700203,-108172.684318
13433.321888,-6069.688724,17764.942608,-75843.454302
13433.325163,-3701.029710,15988.448347,-69255.033019
13433.328438,-15100.201217,4589.276840,-69255.033019
13433.331713,1480.411884,3552.988522,-85649.476676
13433.334988,-3404.947333,-2812.782580,-81206.122788
13433.338265,-3849.070898,6217.729913,-59755.448844
13433.341553,2664.741391,9622.677246,-58070.038748
13433.344840,8290.306550,12583.501014,-63279.488135
13433.348128,-8882.471304,11547.212695,-79367.493593
13433.351416,-2812.782580,6957.935855,-83351.190182
13433.354703,-11251.130318,18505.148550,-71706.538613
13433.357991,-10510.924376,11251.130318,-73391.948708
13433.361278,4737.318029,-3108.864956,-88713.858668
13433.364566,14952.160028,-14952.160028,-78294.959896
13433.367854,9622.677246,-1332.370696,-50715.521968
13433.371141,14952.160028,7994.224174,-41828.814191
13433.374429,-888.247130,1924.535449,-77222.426198
13433.377716,1184.329507,148.041188,-99132.757441
13433.381004,10955.047942,-2664.741391,-83351.190182
13433.384292,13471.748144,-3552.988522,-66650.308326
13433.387579,-5773.606348,7402.059420,-63585.926334
13433.390867,6217.729913,9622.677246,-85802.695776
13433.394154,5329.482782,-7846.182985,-101277.824836
13433.397442,-4737.318029,3997.112087,-77682.083497
13433.400730,-888.247130,4589.276840,-69408.252119
13433.404017,6365.771101,3404.947333,-67876.061123
13433.407305,-5329.482782,-13471.748144,-90246.049664
13433.410592,7698.141797,-3849.070898,-96068.375449
13433.413880,-15544.324782,13175.665768,-78754.617194
13433.417168,5625.565159,7254.018232,-72472.634111
13433.420455,7994.224174,2960.823768,-61287.639840
13433.423743,4737.318029,13027.624579,-49489.769171
13433.427030,-13027.624579,14952.160028,-63432.707234
13433.430318,-3552.988522,4441.235652,-98366.661943
13433.433606,-15544.324782,7254.018232,-106793.712421
13433.436893,0.000000,25315.043216,-81972.218286
13433.440181,6957.935855,13175.665768,-66650.308326
13433.443479,-8882.471304,5773.606348,-70940.443115
13433.446776,-6957.935855,10214.842000,-86568.791274
13433.450074,-7698.141797,3552.988522,-90092.830565
13433.453372,-20429.683999,7846.182985,-77988.521696
13433.456670,-6957.935855,15840.407159,-76762.768900
13433.459968,-1184.329507,14063.912898,-80133.589091
13433.463266,-17912.983796,11547.212695,-86262.353075
13433.466563,-10362.883188,11251.130318,-89173.515967
13433.469861,4885.359217,15988.448347,-79061.055394
13433.473159,-14359.995275,10955.047942,-69255.033019
13433.476457,-18505.148550,5625.565159,-80286.808190
13433.479755,-1628.453072,-13915.871710,-107866.246118
13433.483053,-2220.617826,-9326.594869,-96221.594549
13433.486350,-148.041188,9918.759623,-51788.055665
13433.489648,7698.141797,10807.006753,-40143.404095
13433.492946,3997.112087,3552.988522,-56231.409553
13433.496244,-2516.700203,-1036.288319,-70174.347617
13433.499542,7698.141797,-5329.482782,-68795.375720
13433.502840,1776.494261,9326.594869,-55618.533155
13433.506137,9770.718434,11399.171507,-58223.257848
13433.509435,14656.077652,740.205942,-73391.948708
13433.512733,2960.823768,2812.782580,-64505.240932
13433.516031,8882.471304,888.247130,-66956.746525
13433.519329,17912.983796,-2664.741391,-61287.639840
13433.522626,-13027.624579,1036.288319,-71859.757712
13433.525924,11251.130318,444.123565,-98673.100142
13433.529222,-1332.370696,9326.594869,-101584.263035
13433.532520,-8882.471304,10214.842000,-80133.589091
13433.535818,-30052.361245,11103.089130,-83964.066581
13433.539116,-8586.388927,1036.288319,-106027.616923
13433.542413,-18949.272115,2516.700203,-89173.515967
13433.545711,-2220.617826,13915.871710,-56844.285952
13433.549016,-3997.112087,17024.736666,-61900.516238
13433.552321,-15248.242405,13175.665768,-74464.482406
13433.555626,-9770.718434,-1184.329507,-85189.819378
13433.558931,-4441.235652,4441.235652,-78141.740796
13433.562236,6069.688724,19985.560434,-63585.926334
13433.565541,-7698.141797,12435.459826,-67263.184724
13433.568846,-3256.906145,5033.400406,-65118.117330
13433.572151,-3108.864956,10362.883188,-87334.886772
13433.575456,-3404.947333,12287.418637,-88407.420469
13433.578761,-8290.306550,18505.148550,-74311.263306
13433.582066,-18949.272115,25907.207970,-68948.594820
13433.585371,-8882.471304,5033.400406,-93463.650756
13433.588676,-7994.224174,-6661.853478,-99285.976541
13433.591981,3552.988522,-16284.530724,-86568.791274
13433.595286,18505.148550,740.205942,-46425.387179
13433.598591,1036.288319,10807.006753,-33248.544613
13433.601896,148.041188,3849.070898,-74617.701505
13433.605201,14211.954086,-2960.823768,-76762.768900
13433.608506,8586.388927,-5477.523971,-87334.886772
13433.611811,8438.347739,1776.494261,-64198.802732
13433.615116,-2664.741391,7550.100608,-64505.240932
13433.618421,3404.947333,6365.771101,-84576.942979
13433.621726,5625.565159,-3404.947333,-94382.965354
13433.625031,1332.370696,3701.029710,-84270.504780
13433.628336,-2664.741391,3997.112087,-72472.634111
13433.631641,4145.153275,-296.082377,-68335.718422
13433.634946,-7105.977043,-8586.388927,-89633.173266
13433.638251,-4293.194464,-5329.482782,-104342.206828
13433.641556,-4737.318029,16284.530724,-87181.667672
13433.644861,-6957.935855,7698.141797,-78141.740796
13433.648166,-34789.679274,7550.100608,-80899.684589
13433.651471,-7846.182985,148.041188,-96221.594549
13433.654781,-3701.029710,5181.441594,-75690.235202
13433.658091,-5477.523971,18061.024985,-42288.471490
13433.661401,3997.112087,17172.777854,-46578.606278
13433.664711,1924.535449,11399.171507,-69255.033019
13433.668021,-11991.336260,-740.205942,-80746.465489
13433.671331,296.082377,11399.171507,-65577.774629
13433.674641,4885.359217,7846.182985,-61287.639840
13433.677951,-5477.523971,8142.265362,-58682.915147
13433.681261,-6957.935855,13915.871710,-65730.993728
13433.684571,1332.370696,10066.800811,-73851.606007
13433.687881,148.041188,14952.160028,-65424.555529
13433.691192,-3701.029710,16580.613101,-56844.285952
13433.694502,-7254.018232,22354.219448,-64352.021832
13433.697812,-16136.489536,8290.306550,-91165.364262
13433.701122,-10510.924376,-1480.411884,-87028.448573
13433.704432,1332.370696,-20577.725188,-98366.661943
13433.707742,-444.123565,-3849.070898,-69101.813920
13433.711052,2220.617826,12731.542202,-45965.729880
13433.714362,8734.430116,6365.771101,-66037.431928
13433.717672,-2812.782580,1332.370696,-69408.252119
13433.720982,3404.947333,-5329.482782,-75230.577904
13433.724292,9622.677246,-1480.411884,-64352.021832
13433.727602,-6217.729913,7698.141797,-58989.353346
13433.730912,12879.583391,7846.182985,-76303.111601
13433.734223,13175.665768,-3849.070898,-87641.324971
13433.737533,-1776.494261,-444.123565,-73085.510509
13433.740843,148.041188,1332.370696,-62666.611736
13433.744153,13767.830521,-5773.606348,-62973.049936
13433.747463,1184.329507,2960.823768,-75383.797003
13433.750773,-3997.112087,3404.947333,-89479.954166
13433.754083,8438.347739,4293.194464,-94689.403553
13433.757393,5773.606348,11251.130318,-68795.375720
13433.760706,-3552.988522,20577.725188,-66650.308326
13433.764020,-23242.466579,3552.988522,-104801.864126
13433.767333,-19245.354492,-296.082377,-120430.212286
13433.770647,-5625.565159,4885.359217,-82891.532884
13433.773960,-11843.295072,15100.201217,-81972.218286
13433.777274,-14211.954086,21169.889941,-56537.847752
13433.780587,-13175.665768,2368.659014,-74770.920605
13433.783901,-13471.748144,1184.329507,-90858.926063
13433.787214,-8438.347739,6217.729913,-78294.959896
13433.790527,148.041188,10807.006753,-58682.915147
13433.793841,-12731.542202,11251.130318,-68488.937521
13433.797154,-10362.883188,17024.736666,-63432.707234
13433.800468,4885.359217,9030.512492,-70480.785816
13433.803781,-13471.748144,12731.542202,-63585.926334
13433.807095,5477.523971,11547.212695,-50868.741067
13433.810408,13323.706956,6957.935855,-50409.083768
13433.813722,21169.889941,8142.265362,-47497.920876
13433.817035,-2664.741391,4737.318029,-55312.094956
13433.820348,2664.741391,-3256.906145,-86109.133975
13433.823662,-7698.141797,5329.482782,-96068.375449
13433.826975,-1332.370696,11399.171507,-81206.122788
13433.830289,-1332.370696,6513.812290,-83657.628382
13433.833602,-5329.482782,296.082377,-79673.931792
13433.836916,-10214.842000,-2812.782580,-95761.937250
13433.840229,-3849.070898,3849.070898,-94689.403553
13433.843543,-8438.347739,3849.070898,-83044.751983
13433.846856,296.082377,10362.883188,-75996.673402
13433.850169,-5329.482782,-592.164754,-82125.437386
13433.853483,-11843.295072,-9474.636058,-94842.622652
13433.856796,-7994.224174,-8142.265362,-97447.347346
13433.860110,7402.059420,2812.782580,-87028.448573
13433.863423,-11399.171507,17764.942608,-73851.606007
13433.866739,-7105.977043,11695.253884,-76915.987999
13433.870055,-18801.230927,9918.759623,-96374.813648
13433.873371,-17764.942608,-4885.359217,-108632.341616
13433.876687,-7254.018232,7550.100608,-74004.825107
13433.880003,6661.853478,17764.942608,-35240.392908
13433.883318,-5921.647536,16876.695478,-44586.757984
13433.886634,-9474.636058,16432.571912,-63739.145434
13433.889950,-4145.153275,-3552.988522,-89939.611465
13433.893266,1332.370696,10955.047942,-72779.072310
13433.896582,-4737.318029,16432.571912,-55005.656756
13433.899898,-6365.771101,10510.924376,-70634.004916
13433.903214,-12731.542202,9770.718434,-91012.145162
13433.906530,-8882.471304,12287.418637,-93003.993457
13433.909845,-9918.759623,11547.212695,-86109.133975
13433.913161,-18801.230927,17912.983796,-69714.690318
13433.916477,-4145.153275,10362.883188,-68335.718422
13433.919793,-5625.565159,2812.782580,-70174.347617
13433.923109,-1332.370696,5181.441594,-68642.156621
13433.926425,5477.523971,4441.235652,-69101.813920
13433.929741,-4145.153275,-7105.977043,-93923.308055
13433.933057,-17172.777854,2664.741391,-98060.223744
13433.936372,2812.782580,7105.977043,-81206.122788
13433.939688,5773.606348,6957.935855,-70634.004916
13433.943004,-7105.977043,5033.400406,-75690.235202
13433.946320,-9622.677246,-2664.741391,-86568.791274
13433.949636,2368.659014,2368.659014,-85189.819378
13433.952952,592.164754,-444.123565,-68488.937521
13433.956268,5625.565159,4441.235652,-57916.819649
13433.959584,-4737.318029,1480.411884,-72319.415011
13433.962899,444.123565,-7698.141797,-78448.178995
13433.966215,3404.947333,-4885.359217,-75690.235202
13433.969531,148.041188,2516.700203,-66650.308326
13433.972848,9178.553681,13619.789333,-61134.420740
13433.976165,-4737.318029,13767.830521,-64811.679131
13433.979482,-18209.066173,15988.448347,-69561.471218
13433.982799,-13323.706956,1924.535449,-96068.375449
13433.986116,-740.205942,1628.453072,-95761.937250
13433.989433,-7402.059420,13175.665768,-62053.735338
13433.992750,-6957.935855,22502.260637,-50562.302868
13433.996067,-10658.965565,11103.089130,-79367.493593
13433.999384,-10658.965565,-1332.370696,-90399.268764
13434.002702,-6513.812290,5921.647536,-87181.667672
13434.006019,3997.112087,6661.853478,-71706.538613
13434.009336,-7254.018232,9918.759623,-62666.611736
13434.012653,-13471.748144,14508.036463,-71400.100414
13434.015970,-6365.771101,9918.759623,-90858.926063
13434.019287,-7550.100608,7846.182985,-87794.544071
13434.022604,-14656.077652,18505.148550,-74311.263306
13434.025921,-17468.860231,8142.265362,-79827.150892
13434.029238,-592.164754,-1924.535449,-95455.499051
13434.032555,15988.448347,-5329.482782,-73238.729609
13434.035872,9474.636058,3256.906145,-46731.825378
13434.039189,-4145.153275,8438.347739,-43973.881585
13434.042506,1776.494261,7402.059420,-67569.622924
13434.045823,7105.977043,-1480.411884,-90858.926063
13434.049140,1776.494261,3997.112087,-83810.847481
13434.078998,-12435.459826,9918.759623,-89786.392366
13434.082316,-3108.864956,8734.430116,-79827.150892
13434.085633,8734.430116,3552.988522,-71246.881314
13434.088951,740.205942,8586.388927,-48110.797274
13434.092268,-8438.347739,11399.171507,-53167.027561
13434.095586,-2072.576638,6217.729913,-64658.460031
13434.098903,-4145.153275,11843.295072,-93003.993457
13434.102221,-7402.059420,7994.224174,-85802.695776
13434.105539,-740.205942,9918.759623,-67876.061123
13434.108856,2812.782580,8734.430116,-63432.707234
13434.112174,-7550.100608,6069.688724,-77222.426198
13434.115491,-11251.130318,1628.453072,-85955.914876
13434.118809,-7254.018232,9622.677246,-78754.617194
13434.122126,-7254.018232,12879.583391,-67416.403824
13434.125444,-7698.141797,12287.418637,-68182.499322
13434.128762,-15544.324782,8438.347739,-75537.016103
13434.132079,4589.276840,5477.523971,-76149.892501
13434.135397,-1184.329507,740.205942,-75077.358804
13434.138714,3404.947333,15248.242405,-48876.892772
13434.142032,4145.153275,1924.535449,-67876.061123
13434.145349,-1184.329507,-12583.501014,-104648.645027
13434.148667,-17320.819043,-1184.329507,-98519.881043
13434.151985,3849.070898,10362.883188,-73085.510509
13434.155302,6809.894666,7846.182985,-80286.808190
13434.158619,-5921.647536,6365.771101,-75077.358804
13434.161935,-5033.400406,-4145.153275,-88560.639569
13434.165251,-3108.864956,5625.565159,-82585.094684
13434.168567,3108.864956,9030.512492,-72166.195912
13434.171884,7994.224174,2960.823768,-67263.184724
13434.175200,-592.164754,-1924.535449,-77375.645298
13434.178516,1332.370696,-7698.141797,-84576.942979
13434.181833,4293.194464,-4293.194464,-81052.903688
13434.185149,-10066.800811,7402.059420,-74158.044206
13434.188465,13767.830521,6661.853478,-76762.768900
13434.191782,9326.594869,3404.947333,-67416.403824
13434.195098,-6661.853478,13175.665768,-51788.055665
13434.198414,-15100.201217,10955.047942,-61900.516238
13434.201730,0.000000,3849.070898,-93157.212557
13434.205047,-13175.665768,5329.482782,-97907.004644
13434.208363,-8142.265362,18357.107362,-70021.128517
13434.211679,444.123565,16728.654289,-63432.707234
13434.214996,740.205942,5625.565159,-71400.100414
13434.218312,-9178.553681,12287.418637,-81052.903688
13434.221628,-4441.235652,296.082377,-91012.145162
13434.224945,-13471.748144,5625.565159,-76456.330700
13434.228261,-12879.583391,19985.560434,-69408.252119
13434.231577,296.082377,19985.560434,-71706.538613
13434.234893,-16728.654289,12435.459826,-88867.077768
13434.238210,-1332.370696,296.082377,-89020.296868
13434.241526,-3552.988522,5329.482782,-61747.297139
13434.244842,740.205942,16876.695478,-49336.550071
13434.248159,2664.741391,10955.047942,-55618.533155
13434.251475,-3997.112087,-8142.265362,-99285.976541
13434.254791,-17024.736666,-7254.018232,-114454.667401
13434.258108,3997.112087,9326.594869,-78907.836294
13434.261424,-1036.288319,12879.583391,-58376.476948
13434.264692,-5181.441594,7846.182985,-67722.842023
13434.267961,-2664.741391,-1184.329507,-83197.971083
13434.271229,-1332.370696,-1924.535449,-85189.819378
13434.274497,-1184.329507,3256.906145,-73085.510509
13434.277766,11103.089130,5181.441594,-55771.752254
13434.281034,2368.659014,-2664.741391,-71859.757712
13434.284302,-11695.253884,-10066.800811,-80593.246390
13434.287571,7550.100608,-2812.782580,-82431.875585
13434.290839,3997.112087,9326.594869,-71553.319513
13434.294107,-1924.535449,9326.594869,-68182.499322
13434.297376,-444.123565,5329.482782,-69408.252119
13434.300644,0.000000,296.082377,-74924.139704
13434.303912,-3108.864956,10066.800811,-57610.381450
13434.307181,2664.741391,20281.642811,-48110.797274
13434.310449,-4441.235652,9918.759623,-76609.549800
13434.313717,-10066.800811,7550.100608,-86722.010374
13434.316986,-2516.700203,11547.212695,-69714.690318
13434.320254,4293.194464,1628.453072,-65118.117330
13434.323523,-6809.894666,13027.624579,-62206.954438
13434.326791,6957.935855,7698.141797,-68029.280222
13434.330059,-18357.107362,7105.977043,-70634.004916
13434.333328,2812.782580,17616.901420,-66803.527426
13434.336596,1924.535449,14508.036463,-67416.403824
13434.339864,-6809.894666,15100.201217,-64964.898230
13434.343133,-17172.777854,8142.265362,-83044.751983
13434.346401,296.082377,-3256.906145,-93003.993457
13434.349669,19541.436869,-8438.347739,-73851.606007
13434.352938,9918.759623,8882.471304,-47651.139976
13434.356206,4737.318029,2812.782580,-63279.488135
13434.359474,-1036.288319,-2664.741391,-72319.415011
13434.362743,7105.977043,2072.576638,-93157.212557
13434.366011,12731.542202,6513.812290,-82125.437386
13434.369230,6661.853478,6809.894666,-72472.634111
13434.372459,-9918.759623,1184.329507,-78141.740796
13434.375688,3108.864956,6365.771101,-76762.768900
13434.378918,6365.771101,-8142.265362,-92084.678860
13434.382147,3701.029710,2516.700203,-76456.330700
13434.385376,-3256.906145,-2516.700203,-68642.156621
13434.388605,-9622.677246,-1628.453072,-72625.853210
13434.391835,11843.295072,-2516.700203,-81665.780087
13434.395064,15100.201217,2960.823768,-76149.892501
13434.398293,-1924.535449,13471.748144,-68488.937521
13434.401522,-15692.365970,21614.013506,-68182.499322
13434.404752,-7550.100608,-444.123565,-95302.279951
13434.407981,-10658.965565,-2516.700203,-102043.920334
13434.411210,-3701.029710,6809.894666,-91318.583362
13434.414439,-5625.565159,16432.571912,-57150.724151
13434.417669,-13767.830521,15692.365970,-54545.999458
13434.420898,-12731.542202,5181.441594,-76609.549800
13434.424127,5921.647536,-3108.864956,-95455.499051
13434.427356,-6513.812290,6513.812290,-78754.617194
13434.430586,-11991.336260,9474.636058,-72166.195912
13434.433815,-9474.636058,19541.436869,-59755.448844
13434.437044,2812.782580,13027.624579,-81052.903688
13434.440273,-9030.512492,13027.624579,-87028.448573
13434.443503,-7994.224174,2220.617826,-79061.055394
13434.446732,-4737.318029,0.000000,-84883.381178
13434.449961,19541.436869,13619.789333,-50868.741067
13434.453190,-888.247130,6217.729913,-62666.611736
13434.456420,-2368.659014,-9770.718434,-99745.633840
13434.459649,-10658.965565,-4737.318029,-102350.358533
13434.462878,-6957.935855,3701.029710,-72779.072310
13434.466107,2368.659014,14952.160028,-60521.544342
13434.469337,2960.823768,12139.377449,-67722.842023
13434.472534,-6365.771101,-7254.018232,-92697.555258
13434.475732,-14063.912898,-148.041188,-89633.173266
13434.478929,11251.130318,10066.800811,-75230.577904
13434.482127,6069.688724,1036.288319,-73698.386908
13434.485324,-4885.359217,-6217.729913,-79980.369991
13434.488522,-6957.935855,-1924.535449,-82431.875585
13434.491720,1480.411884,-3404.947333,-88407.420469
13434.494917,7698.141797,12139.377449,-73238.729609
13434.498115,-10066.800811,17616.901420,-70480.785816
13434.501312,-25907.207970,8586.388927,-98519.881043
13434.504510,-16136.489536,-2368.659014,-116293.296596
13434.507707,-5477.523971,4885.359217,-102197.139433
13434.510905,-2516.700203,14952.160028,-61747.297139
13434.514102,-10362.883188,19985.560434,-53013.808462
13434.517300,-16432.571912,7698.141797,-73391.948708
13434.520498,-14804.118840,-3404.947333,-90092.830565
13434.523695,3108.864956,-1184.329507,-90246.049664
13434.526893,-148.041188,11843.295072,-66650.308326
13434.530090,-20577.725188,11399.171507,-59295.791545
13434.533288,-14063.912898,12879.583391,-70174.347617
13434.536485,3849.070898,9030.512492,-77528.864398
13434.539683,-5033.400406,14804.118840,-63585.926334
13434.542881,7846.182985,11695.253884,-63126.269035
13434.546078,5329.482782,6957.935855,-52247.712964
13434.549276,13175.665768,5625.565159,-54239.561258
13434.552473,5181.441594,1480.411884,-77835.302597
13434.555671,6661.853478,-2072.576638,-101277.824836
13434.558868,-19541.436869,-4441.235652,-104648.645027
13434.562066,-3552.988522,4293.194464,-92850.774358
13434.565264,5773.606348,9918.759623,-81972.218286
13434.568461,-2960.823768,9326.594869,-84883.381178
13434.571659,-8290.306550,-2072.576638,-91625.021561
13434.574831,-15248.242405,-296.082377,-84730.162079
13434.578003,-1776.494261,4885.359217,-84270.504780
13434.581175,5033.400406,4589.276840,-81512.560987
13434.584348,-3997.112087,-4885.359217,-82278.656485
13434.587520,-19245.354492,-4737.318029,-91931.459760
13434.590692,6217.729913,-4589.276840,-90552.487864
13434.593864,8882.471304,6809.894666,-70634.004916
13434.597037,-7698.141797,19097.313304,-65424.555529
13434.600209,-20281.642811,24870.919651,-75690.235202
13434.603381,-18357.107362,444.123565,-105108.302326
13434.606553,-12287.418637,2664.741391,-105108.302326
13434.609726,8882.471304,18061.024985,-60215.106143
13434.612898,-2368.659014,22502.260637,-43667.443386
13434.616070,-22206.178260,12879.583391,-64658.460031
13434.619242,-13027.624579,6217.729913,-77222.426198
13434.622415,-3256.906145,888.247130,-96374.813648
13434.625587,-7698.141797,8438.347739,-81665.780087
13434.628759,-12879.583391,17320.819043,-55312.094956
13434.631931,-9918.759623,19393.395680,-63585.926334
13434.635104,-2812.782580,9326.594869,-87028.448573
13434.638276,-888.247130,16580.613101,-84423.723880
13434.641448,-15840.407159,7105.977043,-83964.066581
13434.644620,-3108.864956,1924.535449,-72625.853210
13434.647793,24130.713709,-2072.576638,-56384.628653
13434.650965,8290.306550,3108.864956,-59449.010645
13434.654137,11399.171507,592.164754,-74464.482406
13434.657309,3256.906145,1332.370696,-74464.482406
13434.660482,5033.400406,-1036.288319,-87947.763170
13434.663654,5625.565159,6957.935855,-83964.066581
13434.666826,12731.542202,7846.182985,-77222.426198
13434.669998,-15840.407159,-3849.070898,-85036.600278
13434.673171,-740.205942,10214.842000,-86875.229473
13434.676368,10955.047942,-1184.329507,-74311.263306
13434.679565,5625.565159,-7698.141797,-73545.167808
13434.682762,-6069.688724,-2368.659014,-73238.729609
13434.685959,-2812.782580,-1776.494261,-80133.589091
13434.689156,-8586.388927,-6513.812290,-95302.279951
13434.692353,15692.365970,-2368.659014,-94842.622652
13434.695550,1924.535449,4885.359217,-84117.285680
13434.698747,-4589.276840,12583.501014,-53320.246661
13434.701944,-13619.789333,17172.777854,-43820.662486
13434.705141,-2516.700203,8882.471304,-80133.589091
13434.708338,4145.153275,3552.988522,-105721.178724
13434.711535,-11103.089130,1184.329507,-92850.774358
13434.714732,-1332.370696,9770.718434,-58223.257848
13434.717929,148.041188,11843.295072,-48876.892772
13434.721126,13619.789333,13175.665768,-68182.499322
13434.724323,-1924.535449,-2220.617826,-89173.515967
13434.727520,-13619.789333,5329.482782,-83504.409282
13434.730717,5181.441594,15840.407159,-64045.583633
13434.733914,-2960.823768,23538.548956,-56078.190454
13434.737112,-4293.194464,11103.089130,-78601.398095
13434.740309,-4885.359217,2960.823768,-96068.375449
13434.743506,-13915.871710,8290.306550,-84423.723880
13434.746703,-9770.718434,-4145.153275,-94536.184453
13434.749900,-1332.370696,-2664.741391,-102197.139433
13434.753097,-13767.830521,-2516.700203,-112003.161808
13434.756294,-16284.530724,-5181.441594,-102656.796732
13434.759491,1036.288319,8586.388927,-77528.864398
13434.762688,-2960.823768,8438.347739,-63126.269035
13434.765885,1332.370696,2664.741391,-70174.347617
13434.769082,-6809.894666,3108.864956,-71093.662214
13434.772279,-6957.935855,296.082377,-85189.819378
13434.775476,3404.947333,4145.153275,-81512.560987
13434.778649,296.082377,-740.205942,-72319.415011
13434.781822,-9178.553681,2220.617826,-76456.330700
13434.784996,-1480.411884,-5773.606348,-77988.521696
13434.788169,25018.960840,4885.359217,-77528.864398
13434.791342,5921.647536,17172.777854,-56231.409553
13434.794515,-17764.942608,28868.031738,-53473.465760
13434.797688,-9474.636058,7994.224174,-82125.437386
13434.800861,-7550.100608,148.041188,-104035.768628
13434.804034,-2960.823768,10658.965565,-83964.066581
13434.807208,888.247130,17172.777854,-73391.948708
13434.810381,-12435.459826,14952.160028,-62053.735338
13434.813554,-11399.171507,5773.606348,-83197.971083
13434.816727,-3552.988522,5921.647536,-95149.060852
13434.819900,-18061.024985,10066.800811,-88560.639569
13434.823073,-16136.489536,13471.748144,-79980.369991
13434.826247,-13471.748144,17468.860231,-81665.780087
13434.829420,-11251.130318,9918.759623,-91165.364262
13434.832593,-6513.812290,9326.594869,-88560.639569
13434.835766,-9030.512492,11547.212695,-68029.280222
13434.838939,-24574.837274,3849.070898,-64964.898230
13434.842112,9918.759623,-12879.583391,-80133.589091
13434.845286,4293.194464,-5773.606348,-102656.796732
13434.848459,-22946.384202,296.082377,-75383.797003
13434.851632,4441.235652,5625.565159,-45199.634382
13434.854785,9918.759623,6365.771101,-41828.814191
13434.857938,5625.565159,888.247130,-63432.707234
13434.861091,12879.583391,5477.523971,-70634.004916
13434.864243,6069.688724,3701.029710,-70327.566716
13434.867396,-740.205942,6661.853478,-59755.448844
13434.870549,9030.512492,5477.523971,-63126.269035
13434.873702,6661.853478,-6513.812290,-75996.673402
13434.876855,-5033.400406,-3701.029710,-78601.398095
13434.880008,-2960.823768,-2960.823768,-69408.252119
13434.883161,21021.848753,5329.482782,-62973.049936
13434.886313,5921.647536,18505.148550,-65577.774629
13434.889466,-20429.683999,21614.013506,-76303.111601
13434.892619,-21169.889941,4589.276840,-103116.454031
13434.895772,-11103.089130,444.123565,-109858.094413
13434.898925,-1184.329507,9770.718434,-77222.426198
13434.902078,-11399.171507,14508.036463,-72012.976812
13434.905231,-16580.613101,13175.665768,-63892.364533
13434.908384,-1184.329507,1924.535449,-86262.353075
13434.911536,296.082377,296.082377,-96068.375449
13434.914689,-12139.377449,13175.665768,-82891.532884
13434.917842,-9622.677246,14656.077652,-69408.252119
13434.920995,-2220.617826,19837.519246,-74311.263306
13434.924148,-17616.901420,15544.324782,-95302.279951
13434.927301,2220.617826,8142.265362,-104648.645027
13434.930454,-6661.853478,8438.347739,-79367.493593
13434.933607,-22206.178260,14211.954086,-59295.791545
13434.936759,1776.494261,8142.265362,-76149.892501
13434.939912,-5181.441594,-3256.906145,-114761.105600
13434.943065,-24722.878463,-11251.130318,-119051.240389
13434.946218,-3997.112087,1924.535449,-77835.302597
13434.949371,2368.659014,13175.665768,-49336.550071
13434.952524,3108.864956,7254.018232,-63585.926334
13434.955662,-10807.006753,0.000000,-80593.246390
13434.958801,-5181.441594,-1332.370696,-93463.650756
13434.961940,2812.782580,4293.194464,-77069.207099
13434.965078,16284.530724,5477.523971,-55618.533155
13434.968217,-5921.647536,0.000000,-64964.898230
13434.971356,3256.906145,-5033.400406,-83351.190182
13434.974494,6809.894666,-1776.494261,-85036.600278
13434.977633,1776.494261,2960.823768,-70940.443115
13434.980772,10955.047942,13323.706956,-59142.572446
13434.983910,3701.029710,16136.489536,-43361.005187
13434.987049,-15692.365970,10214.842000,-52400.932063
13434.990188,2664.741391,5477.523971,-80899.684589
13434.993326,6069.688724,14656.077652,-87028.448573
13434.996465,-12879.583391,9030.512492,-78754.617194
13434.999603,-9918.759623,10658.965565,-59755.448844
13435.002742,6365.771101,6365.771101,-66190.651027
13435.005881,-6069.688724,2960.823768,-81972.218286
13435.009019,-10214.842000,5773.606348,-78907.836294
13435.012158,-16136.489536,12435.459826,-78448.178995
13435.015297,-2516.700203,15396.283594,-74004.825107
13435.018435,1332.370696,20133.601622,-69561.471218
13435.021574,-14656.077652,12879.583391,-79367.493593
13435.024713,-3404.947333,-2072.576638,-93463.650756
13435.027851,23538.548956,-3849.070898,-64964.898230
13435.030990,26943.496289,-2516.700203,-45659.291681
13435.034129,4293.194464,8142.265362,-38457.994000
13435.037267,1924.535449,1924.535449,-77528.864398
13435.040406,2812.782580,-4441.235652,-100664.948437
13435.043544,3108.864956,1480.411884,-92237.897959
13435.046683,10214.842000,11991.336260,-69867.909418
13435.049822,-3849.070898,5033.400406,-75230.577904
13435.052960,-4589.276840,11251.130318,-76609.549800
13435.056132,14211.954086,-5181.441594,-94382.965354
13435.059303,8586.388927,-11399.171507,-89939.611465
13435.062474,-9622.677246,6513.812290,-73391.948708
13435.065645,-10510.924376,-2220.617826,-84117.285680
13435.068817,3108.864956,-4441.235652,-102503.577632
13435.071988,1776.494261,7105.977043,-97753.785545
13435.075159,-29164.114115,22206.178260,-93157.212557
13435.078330,-23242.466579,7105.977043,-100205.291138
13435.081501,-14211.954086,3552.988522,-92544.336158
13435.084673,2220.617826,12583.501014,-68795.375720
13435.087844,-6661.853478,13619.789333,-74924.139704
13435.091015,-21614.013506,10510.924376,-75690.235202
13435.094186,-3108.864956,888.247130,-89786.392366
13435.097358,-3256.906145,1480.411884,-87181.667672
13435.100529,-1184.329507,15248.242405,-71706.538613
13435.103700,-12879.583391,18357.107362,-62513.392637
13435.106871,-8586.388927,14508.036463,-68642.156621
13435.110043,-10362.883188,13619.789333,-79827.150892
13435.113214,4441.235652,13323.706956,-83964.066581
13435.116385,-10658.965565,12287.418637,-70787.224015
13435.119556,-3849.070898,13175.665768,-61900.516238
13435.122727,5329.482782,-5625.565159,-81512.560987
13435.125899,1184.329507,-6217.729913,-86722.010374
13435.129070,-13175.665768,2368.659014,-101890.701234
13435.132241,-2516.700203,3404.947333,-84423.723880
13435.135412,5921.647536,13915.871710,-62360.173537
13435.138584,2368.659014,9178.553681,-72319.415011
13435.141755,-8438.347739,-2072.576638,-96681.251848
13435.144926,-3108.864956,-1924.535449,-102197.139433
13435.148097,2812.782580,2516.700203,-96221.594549
13435.151269,11991.336260,1776.494261,-72932.291410
13435.154440,-11843.295072,4145.153275,-75230.577904
13435.157638,-12287.418637,-11251.130318,-100052.072039
13435.160837,-2664.741391,-6217.729913,-92391.117059
13435.164036,-9622.677246,5773.606348,-88407.420469
13435.167234,-32865.143825,25463.084405,-76303.111601
13435.170433,-21465.972318,10955.047942,-92084.678860
13435.173632,-20873.807564,5773.606348,-90705.706963
13435.176830,13027.624579,14063.912898,-58529.696047
13435.180029,-5033.400406,15692.365970,-48417.235474
13435.183228,-22058.137072,12435.459826,-59755.448844
13435.186426,-3997.112087,2072.576638,-78448.178995
13435.189625,5477.523971,1332.370696,-75383.797003
13435.192823,3552.988522,8438.347739,-59449.010645
13435.196022,-11399.171507,15544.324782,-46731.825378
13435.199221,-296.082377,18505.148550,-56384.628653
13435.202419,-3997.112087,15988.448347,-62053.735338
13435.205618,888.247130,8290.306550,-67109.965625
13435.208817,-740.205942,13471.748144,-61440.858940
13435.212015,-5921.647536,16432.571912,-58376.476948
13435.215214,888.247130,-5181.441594,-88560.639569
13435.218413,-1184.329507,-10955.047942,-115680.420198
13435.221611,-12287.418637,888.247130,-107559.807919
13435.224810,-5625.565159,-296.082377,-97140.909146
13435.228008,4293.194464,11399.171507,-73698.386908
13435.231207,-3849.070898,9030.512492,-77069.207099
13435.234406,-3404.947333,296.082377,-93463.650756
13435.237604,-15988.448347,-6365.771101,-95302.279951
13435.240803,-1924.535449,-592.164754,-99592.414740
13435.244002,13323.706956,-3404.947333,-81972.218286
13435.247200,-14359.995275,5773.606348,-75383.797003
13435.250399,-21910.095883,-2812.782580,-97907.004644
13435.253598,11251.130318,-2516.700203,-104035.768628
13435.256796,-15396.283594,4737.318029,-75383.797003
13435.260018,-36418.132346,22798.343014,-86722.010374
13435.263239,-18209.066173,12287.418637,-106334.055122
13435.266461,-11991.336260,6661.853478,-101584.263035
13435.269682,-148.041188,12583.501014,-64352.021832
13435.272904,-6661.853478,17616.901420,-52860.589362
13435.276125,-22946.384202,8290.306550,-71400.100414
13435.279347,-13915.871710,4145.153275,-86722.010374
13435.282568,1776.494261,8882.471304,-89633.173266
13435.285790,-4737.318029,13027.624579,-74158.044206
13435.289012,-9178.553681,22650.301825,-62666.611736
13435.292233,-6069.688724,14508.036463,-67416.403824
13435.295455,-12583.501014,18653.189738,-71859.757712
13435.298676,592.164754,10362.883188,-88254.201370
13435.301898,4589.276840,12731.542202,-83197.971083
13435.305119,4737.318029,8586.388927,-58070.038748
13435.308341,10066.800811,296.082377,-63585.926334
13435.311562,3404.947333,-12287.418637,-93157.212557
13435.314784,-22502.260637,1628.453072,-96528.032748
13435.318005,-5625.565159,-3108.864956,-114454.667401
13435.321227,13175.665768,12139.377449,-83197.971083
13435.324448,-2812.782580,11991.336260,-63432.707234
13435.327670,-7254.018232,2812.782580,-84117.285680
13435.330892,3552.988522,-2664.741391,-105874.397824
13435.334113,1924.535449,-3849.070898,-91778.240660
13435.337335,12435.459826,-11399.171507,-77222.426198
13435.340556,5921.647536,3701.029710,-64658.460031
13435.343778,-11695.253884,1924.535449,-76456.330700
13435.346999,13915.871710,-10362.883188,-91471.802461
13435.350221,13619.789333,5625.565159,-77528.864398
13435.353442,-12879.583391,27535.661042,-61287.639840
13435.356664,-15100.201217,21169.889941,-49949.426470
13435.359885,-148.041188,11251.130318,-85036.600278
13435.363114,-1480.411884,1480.411884,-107559.807919
13435.366355,-444.123565,6365.771101,-83964.066581
13435.369595,-21317.931130,13767.830521,-60674.763442
13435.372836,-18209.066173,12435.459826,-66190.651027
13435.376076,7105.977043,12287.418637,-81206.122788
13435.379317,-14508.036463,5477.523971,-91471.802461
13435.382558,-21465.972318,16136.489536,-87947.763170
13435.385798,-6217.729913,12583.501014,-77069.207099
13435.389039,7698.141797,14063.912898,-63892.364533
13435.392279,-11399.171507,13471.748144,-63432.707234
13435.395520,-14211.954086,11103.089130,-74158.044206
13435.398760,1332.370696,-16876.695478,-97447.347346
13435.402001,8882.471304,-16876.695478,-76762.768900
13435.405241,3552.988522,6217.729913,-38304.774900
13435.408482,4441.235652,17024.736666,-41828.814191
13435.411722,2960.823768,148.041188,-77528.864398
13435.414963,5477.523971,-1184.329507,-77835.302597
13435.418203,888.247130,-2812.782580,-84576.942979
13435.421444,-2072.576638,8882.471304,-62513.392637
13435.424684,6957.935855,9622.677246,-58376.476948
13435.427925,12731.542202,-4145.153275,-72012.976812
13435.431165,1184.329507,-5921.647536,-84117.285680
13435.434406,-1036.288319,-3552.988522,-74004.825107
13435.437647,-3849.070898,0.000000,-72472.634111
13435.440887,-1628.453072,5477.523971,-74770.920605
13435.444128,-21465.972318,8290.306550,-94229.746254
13435.447368,-24574.837274,5921.647536,-96068.375449
13435.450609,-13027.624579,18061.024985,-99439.195640
13435.453849,10362.883188,16580.613101,-60215.106143
13435.457090,-7698.141797,11991.336260,-56078.190454
13435.460330,-18357.107362,4293.194464,-82585.094684
13435.463571,-6957.935855,-444.123565,-89326.735067
13435.466784,2368.659014,7846.182985,-66343.870127
13435.469997,-1924.535449,14656.077652,-59908.667944
13435.473210,-7550.100608,18357.107362,-59602.229744
13435.476424,-6217.729913,12583.501014,-72319.415011
13435.479637,-3701.029710,14656.077652,-77069.207099
13435.482850,-2072.576638,14656.077652,-73238.729609
13435.486063,-5033.400406,10066.800811,-79980.369991
13435.489276,13915.871710,2960.823768,-74158.044206
13435.492489,21465.972318,-9770.718434,-56537.847752
13435.495703,4145.153275,-3997.112087,-52554.151163
13435.498916,3849.070898,10807.006753,-83810.847481
13435.502129,-4441.235652,-3108.864956,-109551.656214
13435.505342,-4293.194464,6661.853478,-95302.279951
13435.508555,2516.700203,11399.171507,-80133.589091
13435.511769,2072.576638,6069.688724,-67263.184724
13435.514982,-4145.153275,5921.647536,-90092.830565
13435.518195,5477.523971,-11399.171507,-107253.369720
13435.521408,-19393.395680,-8882.471304,-98979.538342
13435.524621,-21465.972318,3552.988522,-86568.791274
13435.527834,-10510.924376,4441.235652,-94536.184453
13435.531048,-11251.130318,-6957.935855,-97447.347346
13435.534261,-19837.519246,444.123565,-94076.527154
13435.537474,-16728.654289,9326.594869,-68795.375720
13435.540687,-7105.977043,18949.272115,-42135.252390
13435.543900,4293.194464,22058.137072,-43820.662486
13435.547114,-2664.741391,5773.606348,-69408.252119
13435.550327,-14656.077652,2664.741391,-77528.864398
13435.553540,-12139.377449,11695.253884,-62819.830836
13435.556753,5773.606348,13915.871710,-53473.465760
13435.559966,-6069.688724,11991.336260,-67263.184724
13435.563180,-6069.688724,13915.871710,-82125.437386
13435.566393,-10807.006753,12583.501014,-82585.094684
13435.569584,-13471.748144,21169.889941,-70021.128517
13435.572775,-7994.224174,15396.283594,-82431.875585
13435.575966,3849.070898,8882.471304,-94995.841752
13435.579157,4145.153275,3849.070898,-81359.341888
13435.582348,4885.359217,-2220.617826,-70021.128517
13435.585539,8734.430116,-3849.070898,-57610.381450
13435.588731,1924.535449,8882.471304,-84883.381178
13435.591922,-12287.418637,-3256.906145,-110624.189911
13435.595113,13027.624579,6513.812290,-96374.813648
13435.598304,-1480.411884,8290.306550,-72779.072310
13435.601495,-11547.212695,5773.606348,-66497.089226
13435.604686,4885.359217,3404.947333,-86722.010374
13435.607877,1036.288319,-4885.359217,-95149.060852
13435.611068,-10214.842000,-8734.430116,-92391.117059
13435.614259,-4885.359217,1776.494261,-87488.105872
13435.617451,-14508.036463,5625.565159,-81972.218286
13435.620642,444.123565,-4441.235652,-82738.313784
13435.623833,-28571.949361,4293.194464,-98673.100142
13435.627024,-17912.983796,8734.430116,-94689.403553
13435.630215,-11843.295072,22798.343014,-57610.381450
13435.633406,11251.130318,24130.713709,-35087.173808
13435.636597,-3997.112087,4589.276840,-56537.847752
13435.639788,-3552.988522,6661.853478,-71093.662214
13435.642979,-4441.235652,4589.276840,-73085.510509
13435.646171,740.205942,10214.842000,-53320.246661
13435.649362,3997.112087,14656.077652,-52554.151163
13435.652553,2220.617826,16136.489536,-70021.128517
13435.655744,-16728.654289,7846.182985,-79673.931792
13435.658935,888.247130,19541.436869,-69714.690318
13435.662126,8142.265362,20429.683999,-61134.420740
13435.665317,-10955.047942,11103.089130,-65118.117330
13435.668508,7550.100608,-7254.018232,-82125.437386
13435.671682,17764.942608,-15100.201217,-72166.195912
13435.674855,740.205942,-5329.482782,-50868.741067
13435.678029,2072.576638,16728.654289,-38611.213099
13435.681202,7402.059420,2072.576638,-68642.156621
13435.684376,148.041188,-2072.576638,-95608.718150
13435.687549,5625.565159,-1776.494261,-90399.268764
13435.690722,-3404.947333,10807.006753,-65884.212828
13435.693896,2368.659014,5625.565159,-70480.785816
13435.697069,16136.489536,-2368.659014,-76149.892501
13435.700243,-888.247130,-5921.647536,-93003.993457
13435.703416,-14063.912898,-3552.988522,-90092.830565
13435.706590,12435.459826,-1924.535449,-73391.948708
13435.709763,-5477.523971,4737.318029,-64964.898230
13435.712937,-29756.278868,18801.230927,-86415.572174
13435.716110,-14508.036463,10807.006753,-107100.150620
13435.719284,-8290.306550,4145.153275,-108325.903417
13435.722457,-5773.606348,8882.471304,-74924.139704
13435.725631,1924.535449,13175.665768,-55312.094956
13435.728804,-19985.560434,9326.594869,-67876.061123
13435.731977,-21021.848753,3108.864956,-89020.296868
13435.735151,-2812.782580,5773.606348,-84423.723880
13435.738324,-7846.182985,17172.777854,-80133.589091
13435.741498,-16284.530724,19985.560434,-71093.662214
13435.744671,-19837.519246,12139.377449,-79214.274493
13435.747845,740.205942,5033.400406,-80593.246390
13435.751018,-1036.288319,14804.118840,-59908.667944
13435.754192,-12731.542202,17764.942608,-64811.679131
13435.757365,-13027.624579,-148.041188,-81052.903688
13435.760539,-1628.453072,-17468.860231,-106027.616923
13435.763712,-5181.441594,-11103.089130,-81512.560987
13435.766886,-1480.411884,12879.583391,-40603.061394
13435.770059,21021.848753,15544.324782,-30337.381721
13435.773260,5625.565159,13175.665768,-43973.881585
13435.776461,-2220.617826,-1480.411884,-71246.881314
13435.779662,10510.924376,5477.523971,-78907.836294
13435.782862,24722.878463,-148.041188,-66803.527426
13435.786063,3404.947333,2220.617826,-51941.274764
13435.789264,-444.123565,-444.123565,-75230.577904
13435.792465,8438.347739,7254.018232,-74617.701505
13435.795666,-2516.700203,-6217.729913,-90092.830565
13435.798867,7550.100608,-2220.617826,-86722.010374
13435.802068,3404.947333,18949.272115,-55618.533155
13435.805269,-22798.343014,26351.331535,-50562.302868
13435.808469,-4737.318029,12287.418637,-85343.038477
13435.811670,-6809.894666,-3256.906145,-100205.291138
13435.814871,-12879.583391,1628.453072,-102503.577632
13435.818072,-10214.842000,9030.512492,-70480.785816
13435.821273,-6957.935855,15544.324782,-56384.628653
13435.824474,-9770.718434,6365.771101,-81665.780087
13435.827675,-2516.700203,8142.265362,-94689.403553
13435.830875,-10658.965565,5921.647536,-92084.678860
13435.834076,-8142.265362,15692.365970,-67876.061123
13435.837277,1036.288319,18653.189738,-58376.476948
13435.840478,-1332.370696,5033.400406,-79673.931792
13435.843679,6809.894666,-9474.636058,-81972.218286
13435.846880,26203.290347,-6217.729913,-51481.617466
13435.850062,13175.665768,-1924.535449,-35546.831107
13435.853244,1184.329507,17468.860231,-31256.696318
13435.856426,14508.036463,1480.411884,-84423.723880
13435.859608,7846.182985,-3256.906145,-106334.055122
13435.862790,12731.542202,2812.782580,-79520.712692
13435.865972,2220.617826,10658.965565,-51328.398366
13435.869154,14211.954086,9030.512492,-71246.881314
13435.872336,7698.141797,-3849.070898,-63279.488135
13435.875518,9770.718434,-9918.759623,-87641.324971
13435.878700,-5181.441594,-1036.288319,-81512.560987
13435.881882,5921.647536,1776.494261,-67569.622924
13435.885064,15840.407159,3849.070898,-75383.797003
13435.888246,-2812.782580,20577.725188,-58529.696047
13435.891428,-20429.683999,17764.942608,-80286.808190
13435.894610,2516.700203,8882.471304,-99132.757441
13435.897792,-6217.729913,-296.082377,-89173.515967
13435.900974,-4293.194464,10214.842000,-74158.044206
13435.904156,-11547.212695,9622.677246,-79061.055394
13435.907338,-11399.171507,7254.018232,-85955.914876
13435.910520,-17172.777854,4145.153275,-99592.414740
13435.913702,-2812.782580,14508.036463,-90858.926063
13435.916884,-14359.995275,15100.201217,-79980.369991
13435.920066,-21465.972318,19689.478057,-78601.398095
13435.923248,-8290.306550,5477.523971,-87947.763170
13435.926430,-3552.988522,6513.812290,-99592.414740
13435.929612,12287.418637,2368.659014,-75537.016103
13435.932794,16728.654289,-1184.329507,-49796.207370
13435.935976,-1628.453072,-11695.253884,-61594.078039
13435.939158,-3404.947333,11399.171507,-96834.470947
13435.942340,-4885.359217,-8142.265362,-109245.218015
13435.945522,9918.759623,14359.995275,-66803.527426
13435.948704,4737.318029,10807.006753,-59142.572446
13435.951913,-1480.411884,14211.954086,-56691.066852
13435.955122,-1924.535449,2516.700203,-83351.190182
13435.958331,6809.894666,-7402.059420,-94689.403553
13435.961540,3997.112087,-1332.370696,-85955.914876
13435.964749,-14508.036463,-2516.700203,-74158.044206
13435.967957,14508.036463,-296.082377,-73545.167808
13435.971166,16876.695478,2664.741391,-79520.712692
13435.974375,-23390.507767,24722.878463,-77682.083497
13435.977584,-18949.272115,19541.436869,-97140.909146
13435.980793,-13619.789333,9770.718434,-104495.425927
13435.984002,-6513.812290,-5329.482782,-97140.909146
13435.987211,-6809.894666,5477.523971,-70787.224015
13435.990420,-15544.324782,16432.571912,-61134.420740
13435.993629,-23094.425390,5181.441594,-79520.712692
13435.996838,-10510.924376,1628.453072,-96068.375449
13436.000047,-7105.977043,12287.418637,-80899.684589
13436.003256,-13915.871710,14359.995275,-82738.313784
13436.006465,-7994.224174,21614.013506,-65118.117330
13436.009674,-5773.606348,11399.171507,-75077.358804
13436.012883,-1332.370696,5625.565159,-86109.133975
13436.016091,20725.766376,3552.988522,-66190.651027
13436.019300,9918.759623,444.123565,-44280.319784
13436.022509,3997.112087,-8734.430116,-57916.819649
13436.025718,9770.718434,13767.830521,-58989.353346
13436.028927,-6513.812290,-4737.318029,-94995.841752
13436.032136,7402.059420,4589.276840,-82585.094684
13436.035345,5181.441594,9918.759623,-66650.308326
13436.038554,-9178.553681,10807.006753,-64352.021832
13436.041763,-6957.935855,9326.594869,-74311.263306
13436.044972,6217.729913,-5773.606348,-91012.145162
13436.048181,2664.741391,-2812.782580,-91012.145162
13436.051390,-24870.919651,-148.041188,-80593.246390
13436.054621,17764.942608,-2516.700203,-78601.398095
13436.057853,7698.141797,-4145.153275,-74464.482406
13436.061084,-7698.141797,20281.642811,-52554.151163
13436.064315,-14211.954086,23686.590144,-47804.359075
13436.067547,-2072.576638,17024.736666,-74924.139704
13436.070778,-1036.288319,-6069.688724,-94689.403553
13436.074010,-3108.864956,2812.782580,-78754.617194
13436.077241,-9030.512492,16876.695478,-56537.847752
13436.080473,-9178.553681,14804.118840,-56997.505051
13436.083704,592.164754,5477.523971,-76915.987999
13436.086936,-4441.235652,11103.089130,-80746.465489
13436.090167,296.082377,17320.819043,-71706.538613
13436.093398,4441.235652,19245.354492,-56844.285952
13436.096630,-9326.594869,10658.965565,-71246.881314
13436.099861,1480.411884,9918.759623,-70634.004916
13436.103093,20725.766376,-14211.954086,-82891.532884
13436.106324,11695.253884,-14359.995275,-57150.724151
13436.109556,10066.800811,-3108.864956,-40603.061394
13436.112787,1480.411884,9918.759623,-65577.774629
13436.116019,-3256.906145,148.041188,-100971.386636
13436.119250,-2516.700203,4145.153275,-87794.544071
13436.122481,16728.654289,740.205942,-91931.459760
13436.125713,-2812.782580,15692.365970,-68488.937521
13436.128944,3997.112087,3849.070898,-79061.055394
13436.132176,740.205942,-6365.771101,-99132.757441
13436.135407,-9622.677246,-12139.377449,-101584.263035
13436.138639,-3997.112087,-3404.947333,-99439.195640
13436.141870,-12879.583391,2368.659014,-78754.617194
13436.145101,-10510.924376,4737.318029,-79520.712692
13436.148333,-4737.318029,9474.636058,-75690.235202
13436.151564,-17024.736666,22946.384202,-62666.611736
13436.154796,-3404.947333,22058.137072,-53626.684860
13436.158046,3256.906145,3849.070898,-71246.881314
13436.161296,-16876.695478,4885.359217,-82431.875585
13436.164546,-8734.430116,6809.894666,-76915.987999
13436.167796,5477.523971,7550.100608,-62513.392637
13436.171046,-2220.617826,10066.800811,-59908.667944
13436.174296,-10066.800811,15100.201217,-65424.555529
13436.177547,-10510.924376,18505.148550,-73391.948708
13436.180797,-1184.329507,9030.512492,-75230.577904
13436.184047,-6069.688724,14952.160028,-64811.679131
13436.187297,13027.624579,20725.766376,-63279.488135
13436.190547,-8734.430116,-4589.276840,-91931.459760
13436.193797,-7846.182985,-21317.931130,-106946.931521
13436.197047,-9326.594869,-2072.576638,-104035.768628
13436.200297,-2664.741391,2368.659014,-91625.021561
13436.203547,1184.329507,13027.624579,-55618.533155
13436.206797,9918.759623,9474.636058,-66650.308326
13436.210048,-12435.459826,3108.864956,-88100.982270
13436.213298,1776.494261,1776.494261,-89173.515967
13436.216548,6069.688724,-2516.700203,-87028.448573
13436.219798,4589.276840,-1628.453072,-74770.920605
13436.223048,-6957.935855,740.205942,-75077.358804
13436.226298,11843.295072,-6957.935855,-82125.437386
13436.229548,-1184.329507,2368.659014,-75843.454302
13436.232798,-14508.036463,25167.002028,-67569.622924
13436.236048,-8438.347739,28719.990550,-60061.887043
13436.239298,-11991.336260,14656.077652,-88867.077768
13436.242549,-2220.617826,-2072.576638,-96681.251848
13436.245799,-1924.535449,1776.494261,-81972.218286
13436.249049,-22502.260637,20133.601622,-64811.679131
13436.252299,-19393.395680,9918.759623,-84576.942979
13436.255549,-5181.441594,592.164754,-94689.403553
13436.258799,-22354.219448,8734.430116,-97753.785545
13436.262065,-17024.736666,12435.459826,-84883.381178
13436.265331,-740.205942,15544.324782,-64352.021832
13436.268597,-9474.636058,14508.036463,-57763.600549
13436.271862,-3701.029710,6217.729913,-73851.606007
13436.275128,3849.070898,-12583.501014,-94229.746254
13436.278394,3404.947333,-20133.601622,-85496.257577
13436.281660,5181.441594,-4441.235652,-46272.168079
13436.284926,6365.771101,16876.695478,-31716.353617
13436.288192,13471.748144,9474.636058,-58529.696047
13436.291457,3552.988522,296.082377,-89633.173266
13436.294723,5625.565159,-6661.853478,-91931.459760
13436.297989,4589.276840,8290.306550,-67109.965625
13436.301255,19245.354492,2664.741391,-49336.550071
13436.304521,6957.935855,2220.617826,-63892.364533
13436.307787,-5033.400406,-12435.459826,-93310.431656
13436.311052,12435.459826,-4885.359217,-90552.487864
13436.314318,-3701.029710,5477.523971,-67416.403824
13436.317584,-33013.185013,20873.807564,-72166.195912
13436.320850,-17616.901420,15840.407159,-107253.369720
13436.324116,-19837.519246,13767.830521,-108019.465218
13436.327382,-5329.482782,15396.283594,-60521.544342
13436.330648,-3256.906145,6365.771101,-55771.752254
13436.333913,-11547.212695,14359.995275,-65884.212828
13436.337179,-15988.448347,1628.453072,-85649.476676
13436.340445,-1924.535449,-740.205942,-92697.555258
13436.343711,-296.082377,16284.530724,-71400.100414
13436.346977,-5625.565159,19985.560434,-62666.611736
13436.350243,-11399.171507,21762.054695,-77682.083497
13436.353508,-8882.471304,11991.336260,-82891.532884
13436.356774,3701.029710,6513.812290,-97140.909146
13436.360040,20725.766376,-1480.411884,-76915.987999
13436.363306,4441.235652,-1628.453072,-48876.892772
13436.366595,-2220.617826,-10510.924376,-59142.572446
13436.369873,1332.370696,5477.523971,-95302.279951
13436.373152,1628.453072,-3701.029710,-91931.459760
13436.376430,8290.306550,1776.494261,-90858.926063
13436.379709,11843.295072,5921.647536,-79367.493593
13436.382987,-4589.276840,18653.189738,-62973.049936
13436.386266,-1924.535449,-4885.359217,-87334.886772
13436.389545,740.205942,-10955.047942,-101737.482134
13436.392823,-4145.153275,-10362.883188,-106180.836023
13436.396102,-2220.617826,2516.700203,-87947.763170
13436.399380,-9178.553681,6217.729913,-69714.690318
13436.402659,-27239.578666,3701.029710,-93923.308055
13436.405937,-11399.171507,10807.006753,-96528.032748
13436.409216,-9178.553681,22650.301825,-62206.954438
13436.412495,-2220.617826,14656.077652,-55005.656756
13436.415773,148.041188,6809.894666,-41522.375992
13436.419052,-13767.830521,6809.894666,-72166.195912
13436.422330,-18505.148550,-592.164754,-89633.173266
13436.425609,5477.523971,2072.576638,-69714.690318
13436.428887,-5181.441594,17912.983796,-45046.415282
13436.432166,-10807.006753,24722.878463,-53167.027561
13436.435445,1924.535449,25759.166782,-60827.982541
13436.438723,-6809.894666,4737.318029,-82125.437386
13436.442002,-2368.659014,7254.018232,-77375.645298
13436.445280,26943.496289,5625.565159,-58070.038748
13436.448559,13027.624579,-6217.729913,-57457.162350
13436.451838,2516.700203,-4293.194464,-48110.797274
13436.455116,1776.494261,14359.995275,-70327.566716
13436.458395,-444.123565,-3404.947333,-98519.881043
13436.461673,148.041188,2368.659014,-85036.600278
13436.464952,2812.782580,5625.565159,-80286.808190
13436.468230,1776.494261,9178.553681,-71859.757712
13436.471519,1776.494261,-1628.453072,-76762.768900
13436.474808,740.205942,-5033.400406,-82278.656485
13436.478097,3701.029710,-12287.418637,-91318.583362
13436.481385,4589.276840,-1332.370696,-71400.100414
13436.484674,-8438.347739,5625.565159,-60674.763442
13436.487963,-30644.525999,13619.789333,-84730.162079
13436.491252,-18505.148550,16876.695478,-116446.515696
13436.494540,-10362.883188,15100.201217,-99898.852939
13436.497829,-7105.977043,16728.654289,-48417.235474
13436.501118,-4885.359217,7994.224174,-42441.690589
13436.504407,-14508.036463,2960.823768,-80286.808190
13436.507696,-19541.436869,-1628.453072,-89786.392366
13436.510984,296.082377,4589.276840,-86415.572174
13436.514273,9622.677246,14656.077652,-59142.572446
13436.517562,-9178.553681,19837.519246,-52400.932063
13436.520851,-4145.153275,18801.230927,-58223.257848
13436.524139,1332.370696,7994.224174,-78294.959896
13436.527428,-11251.130318,3256.906145,-76149.892501
13436.530717,6957.935855,-2368.659014,-72932.291410
13436.534006,9770.718434,-18061.024985,-63126.269035
13436.537294,3256.906145,-4589.276840,-49796.207370
13436.540583,4885.359217,12583.501014,-52860.589362
13436.543872,11991.336260,296.082377,-83810.847481
13436.547161,7698.141797,2960.823768,-86722.010374
13436.550449,15840.407159,1924.535449,-78601.398095
13436.553738,15248.242405,4293.194464,-72012.976812
13436.557027,6809.894666,-444.123565,-64658.460031
13436.560316,10510.924376,-444.123565,-69561.471218
13436.563604,-10510.924376,-13915.871710,-89326.735067
13436.566893,7994.224174,-8882.471304,-84270.504780
13436.570182,14063.912898,11547.212695,-64964.898230
13436.573471,-12287.418637,20281.642811,-67263.184724
13436.576767,-29164.114115,22058.137072,-104495.425927
13436.580064,-6069.688724,10807.006753,-129470.139162
13436.583361,3256.906145,-7994.224174,-112462.819106
13436.586658,-14359.995275,2664.741391,-67416.403824
13436.589954,-10362.883188,25315.043216,-50102.645569
13436.593251,-18061.024985,3256.906145,-89479.954166
13436.596548,-12287.418637,-4293.194464,-108479.122517
13436.599844,-6365.771101,10955.047942,-78448.178995
13436.603141,-10658.965565,17024.736666,-77682.083497
13436.606438,-12583.501014,21910.095883,-54699.218557
13436.609735,1332.370696,10955.047942,-74311.263306
13436.613031,3108.864956,4441.235652,-87641.324971
13436.616328,-3108.864956,-148.041188,-83810.847481
13436.619625,-2220.617826,-13767.830521,-76609.549800
13436.622921,-13619.789333,-7254.018232,-73391.948708
13436.626218,-6069.688724,5477.523971,-89326.735067
13436.629515,6513.812290,-3108.864956,-67876.061123
13436.632812,10510.924376,9770.718434,-52094.493864
13436.636108,4441.235652,14359.995275,-54852.437657
13436.639405,21317.931130,-1036.288319,-73698.386908
13436.642702,-148.041188,-9474.636058,-68795.375720
13436.645998,13767.830521,-1184.329507,-68488.937521
13436.649295,21614.013506,3552.988522,-68335.718422
13436.652592,-10658.965565,2516.700203,-65884.212828
13436.655889,-2368.659014,-2812.782580,-84883.381178
13436.659185,-2072.576638,5181.441594,-71859.757712
13436.662482,-7254.018232,25315.043216,-64811.679131
13436.665779,-1184.329507,31976.896694,-38611.213099
13436.669075,0.000000,1776.494261,-63892.364533
13436.672372,-13767.830521,-3552.988522,-100664.948437
13436.675669,-13175.665768,6069.688724,-86875.229473
13436.678965,-888.247130,1332.370696,-61747.297139
13436.682268,-7105.977043,19245.354492,-61440.858940
13436.685571,-13471.748144,19837.519246,-62206.954438
13436.688874,1628.453072,11251.130318,-72625.853210
13436.692176,-11399.171507,10955.047942,-67109.965625
13436.695479,7994.224174,12583.501014,-61440.858940
13436.698782,21317.931130,-2072.576638,-67416.403824
13436.702085,6661.853478,-17320.819043,-69255.033019
13436.705387,15840.407159,-5625.565159,-54392.780358
13436.708690,9918.759623,16136.489536,-49336.550071
13436.711993,9622.677246,9178.553681,-75537.016103
13436.715295,8882.471304,1036.288319,-98673.100142
13436.718598,592.164754,-3701.029710,-109245.218015
13436.721901,1332.370696,6957.935855,-85496.257577
13436.725204,740.205942,-148.041188,-62053.735338
13436.728506,6365.771101,-1776.494261,-68795.375720
13436.731809,-14952.160028,-9770.718434,-93770.088955
13436.735112,8734.430116,-14211.954086,-91778.240660
13436.738415,7846.182985,7550.100608,-58376.476948
13436.741717,-12435.459826,22206.178260,-43514.224286
13436.745020,-9770.718434,33605.349767,-57916.819649
13436.748323,-6365.771101,10214.842000,-111696.723608
13436.751625,-5625.565159,1036.288319,-107406.588820
13436.754928,-3701.029710,5921.647536,-73851.606007
13436.758231,-23834.631332,18949.272115,-60368.325242
13436.788000,-1480.411884,-9030.512492,-53013.808462
13436.791308,-7105.977043,16728.654289,-78601.398095
13436.794616,1776.494261,-5773.606348,-111849.942708
13436.797923,8586.388927,-740.205942,-88560.639569
13436.801231,-1332.370696,19245.354492,-70787.224015
13436.804539,13915.871710,19097.313304,-51481.617466
13436.807846,-1332.370696,-6217.729913,-79061.055394
13436.811154,1184.329507,-7994.224174,-98213.442844
13436.814462,-3552.988522,-11547.212695,-99898.852939
13436.817769,2368.659014,0.000000,-78141.740796
13436.821077,6957.935855,11695.253884,-62819.830836
13436.824385,-20429.683999,15988.448347,-70787.224015
13436.827692,-24574.837274,15248.242405,-106180.836023
13436.831000,-17024.736666,20429.683999,-110777.409011
13436.834308,-11103.089130,4885.359217,-74464.482406
13436.837615,-9474.636058,9622.677246,-54086.342159
13436.840923,-16728.654289,14508.036463,-72319.415011
13436.844231,-13027.624579,1480.411884,-86722.010374
13436.847539,-13027.624579,-2220.617826,-100358.510238
13436.850846,-4441.235652,19837.519246,-74924.139704
13436.854154,-11991.336260,21169.889941,-69867.909418
13436.857462,-13027.624579,18209.066173,-72472.634111
13436.860769,2368.659014,13915.871710,-80133.589091
13436.864077,12287.418637,1628.453072,-81665.780087
13436.867346,3256.906145,-3256.906145,-72472.634111
13436.870616,-5329.482782,-9326.594869,-72319.415011
13436.873885,-7698.141797,-296.082377,-90552.487864
13436.877155,-5625.565159,7254.018232,-96068.375449
13436.880424,6513.812290,1332.370696,-69101.813920
13436.883694,3256.906145,9030.512492,-70021.128517
13436.886963,-2812.782580,11843.295072,-64811.679131
13436.890233,10362.883188,-7550.100608,-76609.549800
13436.893502,1924.535449,-11251.130318,-82891.532884
13436.896772,8586.388927,-444.123565,-67263.184724
13436.900041,13619.789333,-148.041188,-66190.651027
13436.903311,-3997.112087,10510.924376,-56231.409553
13436.906580,-27979.784608,16284.530724,-83657.628382
13436.909850,-11843.295072,11547.212695,-114607.886501
13436.913119,-16284.530724,22206.178260,-95149.060852
13436.916389,-6661.853478,18505.148550,-55005.656756
13436.919658,-148.041188,10362.883188,-62819.830836
