#time,accel_x,accel_y,accel_z
3847.401593,740.205942,4441.235652,-72932.291410
3847.404144,-3404.947333,2220.617826,-74004.825107
3847.406694,-5329.482782,6069.688724,-73698.386908
3847.409245,740.205942,4145.153275,-73545.167808
3847.411796,-3849.070898,4441.235652,-74311.263306
3847.414346,-1924.535449,6365.771101,-73085.510509
3847.416897,1036.288319,3701.029710,-75996.673402
3847.419448,-6809.894666,5033.400406,-74004.825107
3847.421998,4737.318029,1628.453072,-76762.768900
3847.424549,-7254.018232,4885.359217,-75537.016103
3847.427099,12435.459826,7550.100608,-75690.235202
3847.429650,-29016.072926,8290.306550,-81206.122788
3847.432201,2220.617826,14063.912898,-80440.027290
3847.434751,-13175.665768,1480.411884,-77988.521696
3847.437302,6069.688724,9918.759623,-77988.521696
3847.439853,-6809.894666,10510.924376,-67109.965625
3847.442403,3701.029710,3997.112087,-65118.117330
3847.444954,3404.947333,12583.501014,-69408.252119
3847.447504,-9326.594869,4737.318029,-74004.825107
3847.450055,4737.318029,13027.624579,-68182.499322
3847.452606,-7698.141797,-12139.377449,-81818.999186
3847.455156,4737.318029,2516.700203,-72625.853210
3847.457707,-9770.718434,7254.018232,-72779.072310
3847.460258,-15396.283594,-7550.100608,-77069.207099
3847.462808,-2812.782580,1036.288319,-74004.825107
3847.465359,-1480.411884,4145.153275,-77528.864398
3847.467910,0.000000,3552.988522,-78907.836294
3847.470460,-4885.359217,2960.823768,-78141.740796
3847.473011,-9474.636058,-1628.453072,-75996.673402
3847.475561,-10658.965565,-2812.782580,-72779.072310
3847.478112,-6809.894666,296.082377,-72472.634111
3847.480663,2368.659014,7846.182985,-72319.415011
3847.483213,-4441.235652,4441.235652,-75383.797003
3847.485764,-8586.388927,-888.247130,-75537.016103
3847.488315,-888.247130,1332.370696,-72625.853210
3847.490865,-5329.482782,6069.688724,-72012.976812
3847.493416,-592.164754,3404.947333,-75537.016103
3847.495966,-9918.759623,2368.659014,-74924.139704
3847.498517,-7994.224174,592.164754,-75230.577904
3847.501057,-9622.677246,-4145.153275,-75537.016103
3847.503612,-2812.782580,2516.700203,-74464.482406
3847.506167,3256.906145,2812.782580,-75230.577904
3847.508722,-13767.830521,2220.617826,-76149.892501
3847.511277,-7846.182985,-2220.617826,-77375.645298
3847.513832,-3997.112087,3997.112087,-75843.454302
3847.516387,-6661.853478,-1184.329507,-73545.167808
3847.518942,7994.224174,7994.224174,-69714.690318
3847.521497,-9770.718434,-7846.182985,-75843.454302
3847.524052,-12879.583391,16728.654289,-65118.117330
3847.526607,15248.242405,-5329.482782,-75843.454302
3847.529162,-23834.631332,1776.494261,-73545.167808
3847.531717,28423.908173,10214.842000,-74924.139704
3847.534271,-47521.221476,-7698.141797,-81512.560987
3847.536826,35529.885216,26351.331535,-65424.555529
3847.539381,-148.041188,-14211.954086,-86568.791274
3847.541936,-19097.313304,7105.977043,-75383.797003
3847.544491,29756.278868,29904.320057,-68488.937521
3847.547046,-37750.503042,-16580.613101,-89786.392366
3847.549601,24426.796086,5773.606348,-80746.465489
3847.552156,-5921.647536,-1036.288319,-83810.847481
3847.554711,-12435.459826,-9474.636058,-89326.735067
3847.557266,8438.347739,25167.002028,-67876.061123
3847.559821,-7254.018232,9770.718434,-67569.622924
3847.562376,-9326.594869,11547.212695,-69408.252119
3847.564931,18949.272115,14063.912898,-64198.802732
3847.567486,-7402.059420,740.205942,-73545.167808
3847.570041,-3701.029710,12731.542202,-70634.004916
3847.572596,-1776.494261,8882.471304,-65424.555529
3847.575151,-12435.459826,3552.988522,-71400.100414
3847.577706,7846.182985,11399.171507,-67416.403824
3847.580260,1184.329507,6809.894666,-72472.634111
3847.582815,-4293.194464,6365.771101,-75383.797003
3847.585370,-4293.194464,10214.842000,-66956.746525
3847.587925,-8142.265362,3849.070898,-72779.072310
3847.590480,2812.782580,5181.441594,-78601.398095
3847.593035,3849.070898,7698.141797,-73238.729609
3847.595590,-3108.864956,5921.647536,-74004.825107
3847.598145,-592.164754,3552.988522,-77222.426198
3847.600700,740.205942,13027.624579,-70787.224015
3847.603258,4441.235652,10658.965565,-77222.426198
3847.605817,-2516.700203,7105.977043,-74924.139704
3847.608375,-4145.153275,8734.430116,-71553.319513
3847.610934,3256.906145,3849.070898,-76303.111601
3847.613492,-7550.100608,-2220.617826,-77988.521696
3847.616051,8290.306550,11103.089130,-73238.729609
3847.618609,-14063.912898,1184.329507,-75690.235202
3847.621168,4441.235652,13323.706956,-67263.184724
3847.623726,-7105.977043,5329.482782,-71246.881314
3847.626284,16580.613101,10510.924376,-72472.634111
3847.628843,-2220.617826,-4885.359217,-84883.381178
3847.631401,-19245.354492,6957.935855,-73698.386908
3847.633960,22206.178260,15396.283594,-67109.965625
3847.636518,-44856.480085,-29460.196492,-87794.544071
3847.639077,20577.725188,15988.448347,-63279.488135
3847.641635,-1332.370696,-888.247130,-74924.139704
3847.644193,-30348.443622,2220.617826,-80440.027290
3847.646752,24574.837274,18061.024985,-63892.364533
3847.649310,-22650.301825,10214.842000,-64658.460031
3847.651869,-6365.771101,-8142.265362,-70787.224015
3847.654427,11399.171507,16136.489536,-60368.325242
3847.656986,-19837.519246,-9474.636058,-72472.634111
3847.659544,-4293.194464,8142.265362,-66956.746525
3847.662102,-3552.988522,5625.565159,-69867.909418
3847.664661,-8290.306550,-4145.153275,-82125.437386
3847.667219,7402.059420,10214.842000,-77528.864398
3847.669778,-7698.141797,444.123565,-79061.055394
3847.672336,-13027.624579,-9770.718434,-82891.532884
3847.674895,-9918.759623,6365.771101,-69714.690318
3847.677453,-2368.659014,-1036.288319,-75383.797003
3847.680011,1628.453072,6069.688724,-75690.235202
3847.682570,740.205942,12139.377449,-67876.061123
3847.685128,-10066.800811,-2220.617826,-74617.701505
3847.687687,-10214.842000,3701.029710,-72472.634111
3847.690245,3997.112087,6365.771101,-70174.347617
3847.692804,-9474.636058,-2960.823768,-77682.083497
3847.695362,-8586.388927,3552.988522,-71246.881314
3847.697920,-3701.029710,-444.123565,-73851.606007
3847.700479,-7846.182985,3404.947333,-73391.948708
3847.703037,-5773.606348,-2516.700203,-74464.482406
3847.705599,4885.359217,3997.112087,-71859.757712
3847.708160,-12287.418637,3256.906145,-77528.864398
3847.710722,4293.194464,-3552.988522,-77682.083497
3847.713284,-8290.306550,6957.935855,-73698.386908
3847.715845,0.000000,-5921.647536,-77835.302597
3847.718407,-14063.912898,7254.018232,-70327.566716
3847.720968,7402.059420,-2220.617826,-76915.987999
3847.723530,-18505.148550,-4589.276840,-77988.521696
3847.726091,20725.766376,9770.718434,-74617.701505
3847.728653,-42339.779882,-13175.665768,-87641.324971
3847.731214,29904.320057,25167.002028,-63432.707234
3847.733776,10955.047942,-5329.482782,-87641.324971
3847.736338,-21169.889941,444.123565,-79520.712692
3847.738899,27387.619854,34345.555709,-64658.460031
3847.741461,-19985.560434,-1628.453072,-74770.920605
3847.744022,-7550.100608,-740.205942,-71553.319513
3847.746584,14508.036463,23686.590144,-60521.544342
3847.749145,-21762.054695,-8290.306550,-73545.167808
3847.751707,11991.336260,23538.548956,-63892.364533
3847.754268,-8586.388927,19541.436869,-63432.707234
3847.756830,-9474.636058,4145.153275,-73851.606007
3847.759392,12583.501014,18653.189738,-65118.117330
3847.761953,-5181.441594,1184.329507,-75843.454302
3847.764515,-3404.947333,7254.018232,-74004.825107
3847.767076,2072.576638,13619.789333,-67109.965625
3847.769638,-8438.347739,-1628.453072,-77222.426198
3847.772199,5033.400406,15248.242405,-68029.280222
3847.774761,148.041188,8290.306550,-72932.291410
3847.777322,-4441.235652,-1480.411884,-78141.740796
3847.779884,-4441.235652,6513.812290,-73545.167808
3847.782446,6217.729913,6809.894666,-71706.538613
3847.785007,-2812.782580,3849.070898,-76915.987999
3847.787569,1036.288319,10807.006753,-73545.167808
3847.790130,1036.288319,9326.594869,-73238.729609
3847.792692,740.205942,11991.336260,-73085.510509
3847.795253,1036.288319,9474.636058,-72779.072310
3847.797815,-1628.453072,6513.812290,-72012.976812
3847.800376,-2812.782580,8438.347739,-72472.634111
3847.802938,-740.205942,4145.153275,-71859.757712
3847.805500,-1036.288319,8290.306550,-67109.965625
3847.808063,-1776.494261,14211.954086,-68948.594820
3847.810627,8586.388927,7698.141797,-67416.403824
3847.813190,-10214.842000,10807.006753,-67569.622924
3847.815754,17912.983796,5181.441594,-74311.263306
3847.818317,-17468.860231,14211.954086,-68182.499322
3847.820881,22502.260637,14063.912898,-70174.347617
3847.823444,-30052.361245,-17912.983796,-85343.038477
3847.826008,-12731.542202,15100.201217,-65118.117330
3847.828571,14508.036463,296.082377,-76762.768900
3847.831135,-36566.173535,-17912.983796,-84576.942979
3847.833698,36418.132346,21021.848753,-65118.117330
3847.836262,-30792.567187,-9474.636058,-75843.454302
3847.838825,5181.441594,8290.306550,-69561.471218
3847.841389,5033.400406,7550.100608,-68795.375720
3847.843953,-18357.107362,-10066.800811,-77682.083497
3847.846516,12435.459826,8882.471304,-72932.291410
3847.849080,-1480.411884,-3997.112087,-80286.808190
3847.851643,-24278.754898,-7402.059420,-80440.027290
3847.854207,7846.182985,5181.441594,-75077.358804
3847.856770,-7994.224174,6217.729913,-70480.785816
3847.859334,-148.041188,4885.359217,-75077.358804
3847.861897,3552.988522,3552.988522,-71400.100414
3847.864461,-17320.819043,-1628.453072,-75537.016103
3847.867024,-1036.288319,2072.576638,-73238.729609
3847.869588,-4441.235652,6957.935855,-70634.004916
3847.872151,-2220.617826,3997.112087,-77069.207099
3847.874715,-1332.370696,4885.359217,-71706.538613
3847.877278,-13323.706956,3108.864956,-70174.347617
3847.879842,-7254.018232,740.205942,-72932.291410
3847.882405,-444.123565,6513.812290,-67722.842023
3847.884969,-6365.771101,1036.288319,-74464.482406
3847.887533,-592.164754,-296.082377,-76456.330700
3847.890096,-15544.324782,-888.247130,-72779.072310
3847.892660,-4145.153275,-592.164754,-77682.083497
3847.895223,-2220.617826,5773.606348,-75690.235202
3847.897787,-12139.377449,592.164754,-73085.510509
3847.900350,9918.759623,7105.977043,-70940.443115
3847.902914,-20281.642811,-2664.741391,-74924.139704
3847.905477,2220.617826,17764.942608,-66343.870127
3847.908041,-9770.718434,-4737.318029,-75077.358804
3847.910577,-4589.276840,13175.665768,-64045.583633
3847.913113,1776.494261,-7254.018232,-72012.976812
3847.915649,-22946.384202,10510.924376,-62360.173537
3847.918185,26499.372724,15248.242405,-69101.813920
3847.920721,-31976.896694,-16284.530724,-91165.364262
3847.923257,-11103.089130,14952.160028,-73238.729609
3847.925793,28127.825796,22946.384202,-73085.510509
3847.928330,-31680.814318,-20133.601622,-89633.173266
3847.930866,24722.878463,5181.441594,-77988.521696
3847.933402,-2812.782580,-3108.864956,-84730.162079
3847.935938,-11399.171507,-6513.812290,-87794.544071
3847.938474,20577.725188,13471.748144,-78294.959896
3847.941010,-14508.036463,-9178.553681,-88100.982270
3847.943546,1184.329507,10658.965565,-78907.836294
3847.946082,6217.729913,296.082377,-74617.701505
3847.948618,-11251.130318,-2220.617826,-83197.971083
3847.951154,14359.995275,21317.931130,-67876.061123
3847.953690,-9326.594869,296.082377,-75843.454302
3847.956227,-14656.077652,-740.205942,-76149.892501
3847.958763,8438.347739,14359.995275,-65730.993728
3847.961299,148.041188,5625.565159,-72932.291410
3847.963835,-8586.388927,2220.617826,-78448.178995
3847.966371,592.164754,7994.224174,-71246.881314
3847.968907,-5773.606348,4737.318029,-75230.577904
3847.971443,296.082377,5033.400406,-74004.825107
3847.973979,1332.370696,12731.542202,-71859.757712
3847.976515,4145.153275,12435.459826,-75996.673402
3847.979051,-4145.153275,10066.800811,-73851.606007
3847.981587,-4293.194464,8290.306550,-72932.291410
3847.984124,3108.864956,4293.194464,-74464.482406
3847.986660,-4885.359217,5625.565159,-72472.634111
3847.989196,3997.112087,7402.059420,-72012.976812
3847.991732,1628.453072,9770.718434,-72012.976812
3847.994268,-296.082377,4737.318029,-74770.920605
3847.996804,-7698.141797,11399.171507,-71246.881314
3847.999340,11103.089130,1480.411884,-76915.987999
3848.001876,-14211.954086,16136.489536,-69408.252119
3848.004412,28127.825796,14656.077652,-68029.280222
3848.006948,-41451.532752,-21465.972318,-85343.038477
3848.009485,6661.853478,20725.766376,-60827.982541
3848.012028,3108.864956,-6661.853478,-80746.465489
3848.014571,-42043.697506,-12139.377449,-78294.959896
3848.017114,37898.544230,21465.972318,-62206.954438
3848.019657,-36418.132346,-10807.006753,-76609.549800
3848.022200,16876.695478,13323.706956,-65577.774629
3848.024743,-4885.359217,12139.377449,-63126.269035
3848.027286,-21465.972318,-8290.306550,-72012.976812
3848.029829,14211.954086,9030.512492,-83657.628382
3848.032372,-8734.430116,-4589.276840,-76762.768900
3848.034915,-19541.436869,-5329.482782,-82278.656485
3848.037458,8142.265362,4589.276840,-78141.740796
3848.040001,-11991.336260,3552.988522,-78294.959896
3848.042544,2812.782580,5773.606348,-77528.864398
3848.045087,1776.494261,5625.565159,-68948.594820
3848.047630,-25907.207970,-3256.906145,-76609.549800
3848.050173,6513.812290,592.164754,-74924.139704
3848.052716,-10066.800811,7994.224174,-70480.785816
3848.055259,2368.659014,6069.688724,-75383.797003
3848.057802,0.000000,6661.853478,-68029.280222
3848.060345,-14656.077652,3256.906145,-68182.499322
3848.062888,-5477.523971,-2220.617826,-77069.207099
3848.065431,-592.164754,1776.494261,-75230.577904
3848.067974,-9326.594869,296.082377,-73698.386908
3848.070517,-5921.647536,-7254.018232,-78907.836294
3848.073060,-4737.318029,6365.771101,-72472.634111
3848.075603,-8290.306550,7254.018232,-74004.825107
3848.078146,592.164754,-2960.823768,-75690.235202
3848.080689,-8882.471304,6513.812290,-71093.662214
3848.083232,7402.059420,-6365.771101,-79061.055394
3848.085775,-17912.983796,4145.153275,-73238.729609
3848.088318,7402.059420,-2812.782580,-78448.178995
3848.090861,-21762.054695,-2812.782580,-75077.358804
3848.093404,12731.542202,7254.018232,-75537.016103
3848.095947,-31976.896694,-11251.130318,-86415.572174
3848.098490,28719.990550,26203.290347,-66497.089226
3848.101033,5773.606348,23390.507767,-70174.347617
3848.103576,-36122.049970,-6513.812290,-81512.560987
3848.106119,30496.484810,33901.432144,-59755.448844
3848.108662,-24278.754898,-4589.276840,-73851.606007
3848.111205,-5181.441594,-444.123565,-72319.415011
3848.113754,15840.407159,21762.054695,-67569.622924
3848.116303,-20577.725188,-5033.400406,-77835.302597
3848.118852,9030.512492,21169.889941,-69408.252119
3848.121401,-3552.988522,13619.789333,-72319.415011
3848.123950,-8882.471304,2960.823768,-76303.111601
3848.126499,8882.471304,10955.047942,-70327.566716
3848.129048,-6365.771101,-1036.288319,-75690.235202
3848.131597,-888.247130,14211.954086,-68335.718422
3848.134146,148.041188,14063.912898,-63585.926334
3848.136695,-5625.565159,4145.153275,-77069.207099
3848.139243,-10214.842000,1776.494261,-77222.426198
3848.141792,1036.288319,6809.894666,-69714.690318
3848.144341,-1036.288319,3552.988522,-75230.577904
3848.146890,-2072.576638,5921.647536,-76456.330700
3848.149439,4145.153275,10362.883188,-68488.937521
3848.151988,4293.194464,8290.306550,-73851.606007
3848.154537,-2960.823768,10362.883188,-73085.510509
3848.157086,1776.494261,12731.542202,-69561.471218
3848.159635,-10214.842000,5181.441594,-76303.111601
3848.162184,9178.553681,10658.965565,-73085.510509
3848.164733,-6217.729913,2220.617826,-75383.797003
3848.167282,444.123565,5921.647536,-78601.398095
3848.169831,-8734.430116,7105.977043,-78448.178995
3848.172380,-1776.494261,6661.853478,-74770.920605
3848.174929,-5181.441594,-6661.853478,-79980.369991
3848.177478,17468.860231,20133.601622,-69561.471218
3848.180027,-11843.295072,-4145.153275,-82585.094684
3848.182576,-14804.118840,10510.924376,-69255.033019
3848.185125,17024.736666,12731.542202,-68335.718422
3848.187673,-37454.420665,-28571.949361,-87334.886772
3848.190222,26351.331535,19689.478057,-60061.887043
3848.192771,-14804.118840,-8290.306550,-79214.274493
3848.195325,-24130.713709,4885.359217,-77069.207099
3848.197879,16876.695478,17912.983796,-71706.538613
3848.200433,-23982.672521,-6809.894666,-89633.173266
3848.202986,5329.482782,6365.771101,-82585.094684
3848.205540,-10510.924376,-148.041188,-75690.235202
3848.208094,-12583.501014,-10066.800811,-84730.162079
3848.210648,3108.864956,5773.606348,-65730.993728
3848.213201,-7550.100608,1776.494261,-68335.718422
3848.215755,-9178.553681,-4145.153275,-78907.836294
3848.218309,1480.411884,18653.189738,-65730.993728
3848.220863,-444.123565,2368.659014,-74924.139704
3848.223416,-9918.759623,2220.617826,-72472.634111
3848.225970,-1628.453072,4885.359217,-68795.375720
3848.228524,-9326.594869,-2812.782580,-78448.178995
3848.231078,-4441.235652,10066.800811,-71859.757712
3848.233632,2812.782580,6069.688724,-72625.853210
3848.236185,-11251.130318,-2072.576638,-76609.549800
3848.238739,-7846.182985,7254.018232,-69867.909418
3848.241293,-5625.565159,-1924.535449,-75537.016103
3848.243847,-15840.407159,-4145.153275,-76303.111601
3848.246400,6069.688724,-1184.329507,-72012.976812
3848.248954,-3108.864956,4293.194464,-78448.178995
3848.251508,-13915.871710,-592.164754,-77835.302597
3848.254062,8882.471304,10214.842000,-69714.690318
3848.256615,-25315.043216,-4885.359217,-78448.178995
3848.259169,16580.613101,10510.924376,-71093.662214
3848.261723,-15100.201217,-6069.688724,-80593.246390
3848.264277,-1776.494261,8290.306550,-76149.892501
3848.266830,-21465.972318,-5477.523971,-74311.263306
3848.269384,2368.659014,15692.365970,-63279.488135
3848.271938,11695.253884,-5773.606348,-82125.437386
3848.274492,-19097.313304,9030.512492,-70327.566716
3848.277045,27387.619854,34937.720462,-64505.240932
3848.279599,-35825.967593,-11843.295072,-83351.190182
3848.282153,16432.571912,28423.908173,-70327.566716
3848.284707,16136.489536,8882.471304,-65271.336430
3848.287260,-15100.201217,-5181.441594,-72932.291410
3848.289814,7994.224174,16876.695478,-69867.909418
3848.292368,148.041188,7105.977043,-67569.622924
3848.294922,-8734.430116,5773.606348,-72932.291410
3848.297450,17764.942608,22354.219448,-68948.594820
3848.299979,-7994.224174,740.205942,-74770.920605
3848.302508,740.205942,2960.823768,-79980.369991
3848.305037,-1924.535449,3849.070898,-77222.426198
3848.307566,-7550.100608,-1776.494261,-81512.560987
3848.310094,-444.123565,8734.430116,-76149.892501
3848.312623,4145.153275,8438.347739,-74617.701505
3848.315152,-12583.501014,-1924.535449,-84117.285680
3848.317681,3256.906145,1332.370696,-75996.673402
3848.320210,5477.523971,8882.471304,-71859.757712
3848.322738,1036.288319,3256.906145,-80593.246390
3848.325267,5773.606348,12879.583391,-72012.976812
3848.327796,-5033.400406,10510.924376,-70634.004916
3848.330325,-5773.606348,3552.988522,-77528.864398
3848.332854,14656.077652,11251.130318,-72779.072310
3848.335382,-15396.283594,-444.123565,-78754.617194
3848.337911,9326.594869,3256.906145,-73698.386908
3848.340440,-2072.576638,15988.448347,-69255.033019
3848.342969,-9770.718434,-148.041188,-78907.836294
3848.345498,4885.359217,10658.965565,-72472.634111
3848.348026,0.000000,-1776.494261,-81665.780087
3848.350555,2812.782580,17912.983796,-73085.510509
3848.353084,6661.853478,3701.029710,-78294.959896
3848.355613,-31976.896694,-7698.141797,-85802.695776
3848.358142,12287.418637,17468.860231,-63585.926334
3848.360670,-2516.700203,-7105.977043,-81206.122788
3848.363199,-35974.008781,-13915.871710,-82431.875585
3848.365728,31976.896694,19985.560434,-67263.184724
3848.368257,-37306.379477,-7846.182985,-77988.521696
3848.370786,18061.024985,11103.089130,-66190.651027
3848.373314,-4737.318029,15248.242405,-61747.297139
3848.375843,-18801.230927,-8734.430116,-74158.044206
3848.378372,10214.842000,9770.718434,-63585.926334
3848.380901,-14063.912898,-888.247130,-65118.117330
3848.383430,-8142.265362,-1036.288319,-71859.757712
3848.385958,-3256.906145,8882.471304,-67263.184724
3848.388487,-11547.212695,-5181.441594,-84117.285680
3848.391016,2368.659014,-4589.276840,-85189.819378
3848.393545,0.000000,6957.935855,-75383.797003
3848.396074,-7550.100608,-3256.906145,-79367.493593
3848.398583,-2664.741391,-3849.070898,-76915.987999
3848.401092,-7105.977043,6513.812290,-71400.100414
3848.403601,4145.153275,-444.123565,-76456.330700
3848.406110,-10214.842000,1776.494261,-73085.510509
3848.408620,-2664.741391,888.247130,-73238.729609
3848.411129,-10362.883188,-4885.359217,-76762.768900
3848.413638,-14656.077652,-6217.729913,-73851.606007
3848.416147,8142.265362,444.123565,-75077.358804
3848.418657,-8290.306550,6661.853478,-77222.426198
3848.421166,-6809.894666,-3997.112087,-79827.150892
3848.423675,-4737.318029,10066.800811,-70787.224015
3848.426184,-7105.977043,-4441.235652,-75690.235202
3848.428694,-592.164754,4145.153275,-70787.224015
3848.431203,2516.700203,-3701.029710,-74464.482406
3848.433712,-17912.983796,9326.594869,-70787.224015
3848.436221,10362.883188,-4737.318029,-78907.836294
3848.438731,-35677.926404,-888.247130,-76762.768900
3848.441240,46040.809592,24278.754898,-66650.308326
3848.443749,-25463.084405,-13027.624579,-87334.886772
3848.446258,1480.411884,17172.777854,-73391.948708
3848.448767,24426.796086,13027.624579,-76915.987999
3848.451277,-32717.102636,-17764.942608,-87181.667672
3848.453786,26351.331535,4441.235652,-73698.386908
3848.456295,-10658.965565,-3108.864956,-78601.398095
3848.458804,-4885.359217,-1184.329507,-83964.066581
3848.461314,14359.995275,12139.377449,-73391.948708
3848.463823,-7254.018232,2072.576638,-79367.493593
3848.466332,3997.112087,8882.471304,-78141.740796
3848.468841,8438.347739,14508.036463,-66037.431928
3848.471351,-14359.995275,-444.123565,-74158.044206
3848.473860,6365.771101,8142.265362,-68642.156621
3848.476369,2072.576638,10510.924376,-66650.308326
3848.478878,-5181.441594,7846.182985,-79214.274493
3848.481388,3849.070898,8734.430116,-79673.931792
3848.483897,-13471.748144,5181.441594,-74770.920605
3848.486406,1924.535449,1480.411884,-77069.207099
3848.488915,1332.370696,10066.800811,-71400.100414
3848.491424,740.205942,10955.047942,-74311.263306
3848.493934,592.164754,9622.677246,-75230.577904
3848.496443,-3552.988522,13915.871710,-72779.072310
3848.498965,-3997.112087,6809.894666,-74617.701505
3848.501487,1924.535449,2812.782580,-72472.634111
3848.504010,296.082377,11251.130318,-71553.319513
3848.506532,-8586.388927,-4441.235652,-79520.712692
3848.509054,2220.617826,10955.047942,-72472.634111
3848.511577,-6661.853478,-296.082377,-79827.150892
3848.514099,17024.736666,14359.995275,-71553.319513
3848.516621,-15248.242405,-888.247130,-77988.521696
3848.519144,-444.123565,22354.219448,-63892.364533
3848.521666,9326.594869,3404.947333,-75230.577904
3848.524188,-40119.162056,-21021.848753,-81818.999186
3848.526711,31976.896694,15100.201217,-59908.667944
3848.529233,-35825.967593,-19541.436869,-81206.122788
3848.531755,6661.853478,14359.995275,-71553.319513
3848.534278,7254.018232,11695.253884,-75077.358804
3848.536800,-24278.754898,-2072.576638,-82278.656485
3848.539322,1628.453072,1628.453072,-80440.027290
3848.541844,-4737.318029,6957.935855,-69561.471218
3848.544367,-20281.642811,-12879.583391,-83351.190182
3848.546889,7105.977043,6661.853478,-73238.729609
3848.549411,-17024.736666,3849.070898,-70327.566716
3848.551934,-2220.617826,-1332.370696,-76609.549800
3848.554456,296.082377,15840.407159,-62973.049936
3848.556978,-1776.494261,1628.453072,-72472.634111
3848.559501,-2368.659014,-1628.453072,-72779.072310
3848.562023,-5033.400406,8142.265362,-68029.280222
3848.564545,-6513.812290,1184.329507,-76303.111601
3848.567068,-1036.288319,5477.523971,-75077.358804
3848.569590,-6809.894666,4293.194464,-74464.482406
3848.572112,-2664.741391,-296.082377,-73085.510509
3848.574635,-20281.642811,-3849.070898,-72625.853210
3848.577157,2812.782580,-2516.700203,-72012.976812
3848.579679,1332.370696,4589.276840,-73238.729609
3848.582202,-16136.489536,4589.276840,-74158.044206
3848.584724,7698.141797,7698.141797,-74004.825107
3848.587246,-25759.166782,1924.535449,-73085.510509
3848.589769,10066.800811,3404.947333,-72779.072310
3848.592291,-12435.459826,-5329.482782,-80593.246390
3848.594813,4737.318029,7105.977043,-78448.178995
3848.597335,-25463.084405,-2960.823768,-79827.150892
3848.599869,2220.617826,12731.542202,-70480.785816
3848.602402,-11251.130318,-13619.789333,-84117.285680
3848.604936,7846.182985,2664.741391,-71246.881314
3848.607469,29164.114115,35825.967593,-59449.010645
3848.610003,-31976.896694,-10658.965565,-84576.942979
3848.612536,7550.100608,24722.878463,-62973.049936
3848.615070,4441.235652,3849.070898,-67722.842023
3848.617603,-13767.830521,-1184.329507,-68182.499322
3848.620136,13471.748144,25907.207970,-61287.639840
3848.622670,-20577.725188,2072.576638,-69101.813920
3848.625203,5477.523971,11991.336260,-72319.415011
3848.627737,8438.347739,15544.324782,-72779.072310
3848.630270,-4589.276840,3404.947333,-77988.521696
3848.632804,2516.700203,11843.295072,-71553.319513
3848.635337,-5329.482782,296.082377,-73085.510509
3848.637870,-5477.523971,5921.647536,-76303.111601
3848.640404,-148.041188,6809.894666,-75077.358804
3848.642937,9326.594869,8882.471304,-73238.729609
3848.645471,-7846.182985,4145.153275,-76915.987999
3848.648004,-3552.988522,9474.636058,-68642.156621
3848.650538,-444.123565,2960.823768,-69561.471218
3848.653071,0.000000,7698.141797,-73545.167808
3848.655604,11399.171507,11695.253884,-74158.044206
3848.658138,-3997.112087,13915.871710,-76456.330700
3848.660671,-6513.812290,9770.718434,-75996.673402
3848.663205,148.041188,2812.782580,-72472.634111
3848.665738,3108.864956,8734.430116,-74311.263306
3848.668272,-148.041188,-5773.606348,-77682.083497
3848.670805,-1776.494261,7402.059420,-71859.757712
3848.673339,-9178.553681,2072.576638,-77069.207099
3848.675872,15100.201217,16728.654289,-70021.128517
3848.678405,4145.153275,-592.164754,-81972.218286
3848.680939,-16728.654289,4441.235652,-71246.881314
3848.683472,25167.002028,16580.613101,-63585.926334
3848.686006,-48261.427418,-31236.690752,-87181.667672
3848.688539,10807.006753,7698.141797,-64964.898230
3848.691073,2516.700203,1628.453072,-74004.825107
3848.693606,-26055.249158,1036.288319,-80746.465489
3848.696139,21317.931130,19837.519246,-74158.044206
3848.698673,-26499.372724,-3108.864956,-84883.381178
3848.701215,296.082377,1332.370696,-82585.094684
3848.703757,-3849.070898,2516.700203,-71706.538613
3848.706299,-15692.365970,-19245.354492,-86722.010374
3848.708842,7105.977043,6809.894666,-74464.482406
3848.711384,-19985.560434,3997.112087,-67876.061123
3848.713926,-13323.706956,-5033.400406,-78601.398095
3848.716468,5625.565159,8882.471304,-71246.881314
3848.719010,-4441.235652,3552.988522,-77222.426198
3848.721552,-5033.400406,-9326.594869,-83964.066581
3848.724095,-7105.977043,6513.812290,-71400.100414
3848.726637,444.123565,3849.070898,-75690.235202
3848.729179,-5329.482782,-2072.576638,-77069.207099
3848.731721,-13471.748144,4441.235652,-70327.566716
3848.734263,-3997.112087,-5773.606348,-77988.521696
3848.736806,-11399.171507,0.000000,-75230.577904
3848.739348,4145.153275,888.247130,-75077.358804
3848.741890,-12287.418637,-2072.576638,-76915.987999
3848.744432,-1184.329507,4885.359217,-76915.987999
3848.746974,-12731.542202,1776.494261,-75230.577904
3848.749516,1184.329507,6957.935855,-70634.004916
3848.752059,-14359.995275,-3849.070898,-77988.521696
3848.754601,11843.295072,6661.853478,-74617.701505
3848.757143,-38194.626607,-5625.565159,-81052.903688
3848.759685,19245.354492,12879.583391,-74004.825107
3848.762227,-11399.171507,-12583.501014,-85496.257577
3848.764770,-5033.400406,10807.006753,-69867.909418
3848.767312,29016.072926,24130.713709,-67416.403824
3848.769854,-43672.150578,-7550.100608,-83351.190182
3848.772396,34049.473332,31088.649564,-64811.679131
3848.774938,-19245.354492,2812.782580,-73851.606007
3848.777480,-6513.812290,-6661.853478,-81206.122788
3848.780023,23242.466579,19245.354492,-68029.280222
3848.782565,-27535.661042,-5477.523971,-62360.173537
3848.785107,-296.082377,6365.771101,-73698.386908
3848.787649,17912.983796,21614.013506,-66343.870127
3848.790191,-9030.512492,3256.906145,-81052.903688
3848.792734,5033.400406,3552.988522,-77069.207099
3848.795276,-6513.812290,7846.182985,-70480.785816
3848.797818,-8142.265362,-296.082377,-80593.246390
3848.800360,2072.576638,3849.070898,-73238.729609
3848.802881,-148.041188,9622.677246,-72779.072310
3848.805403,-740.205942,296.082377,-78294.959896
3848.807924,-8734.430116,12139.377449,-67569.622924
3848.810445,1480.411884,6661.853478,-72012.976812
3848.812967,4589.276840,1628.453072,-78448.178995
3848.815488,8142.265362,16876.695478,-73851.606007
3848.818009,-2072.576638,14063.912898,-74311.263306
3848.820530,-11103.089130,7550.100608,-74617.701505
3848.823052,6365.771101,10510.924376,-72166.195912
3848.825573,-5033.400406,-6365.771101,-76609.549800
3848.828094,3997.112087,7994.224174,-68642.156621
3848.830616,-5773.606348,2368.659014,-76303.111601
3848.833137,8438.347739,17320.819043,-71246.881314
3848.835658,-10807.006753,1036.288319,-76915.987999
3848.838179,19689.478057,19689.478057,-66650.308326
3848.840701,-9030.512492,-5181.441594,-82738.313784
3848.843222,-33901.432144,-7254.018232,-77222.426198
3848.845743,18801.230927,9770.718434,-64964.898230
3848.848265,-35974.008781,-29016.072926,-86262.353075
3848.850786,28571.949361,15988.448347,-65118.117330
3848.853307,-10214.842000,6365.771101,-72625.853210
3848.855829,-12583.501014,-296.082377,-79367.493593
3848.858350,8734.430116,7698.141797,-80899.684589
3848.860871,-11547.212695,-6809.894666,-81818.999186
3848.863392,-9918.759623,-22354.219448,-91471.802461
3848.865914,6513.812290,6365.771101,-76762.768900
3848.868435,-22798.343014,-740.205942,-79367.493593
3848.870956,2960.823768,4293.194464,-75996.673402
3848.873478,-3849.070898,9474.636058,-66956.746525
3848.875999,-3849.070898,-6513.812290,-76456.330700
3848.878520,-5181.441594,9326.594869,-67109.965625
3848.881041,-1480.411884,7254.018232,-70480.785816
3848.883563,-7402.059420,-5773.606348,-78294.959896
3848.886084,-5625.565159,6661.853478,-71553.319513
3848.888605,-14804.118840,2072.576638,-73238.729609
3848.891127,-6957.935855,-4737.318029,-80133.589091
3848.893648,-4885.359217,4737.318029,-74158.044206
3848.896169,-7105.977043,-2220.617826,-66037.431928
3848.898690,-3552.988522,-2812.782580,-73085.510509
3848.901212,-10510.924376,5329.482782,-74004.825107
3848.903745,6217.729913,296.082377,-75537.016103
3848.906279,-14656.077652,3701.029710,-76149.892501
3848.908812,10066.800811,-592.164754,-77222.426198
3848.911345,-21762.054695,1036.288319,-74464.482406
3848.913879,11103.089130,-888.247130,-77222.426198
3848.916412,-28868.031738,-10362.883188,-83657.628382
3848.918946,31236.690752,29016.072926,-65884.212828
3848.921479,1480.411884,-8438.347739,-87641.324971
3848.924012,-14063.912898,8290.306550,-72166.195912
3848.926546,20429.683999,25018.960840,-68948.594820
3848.929079,-23834.631332,-15692.365970,-89020.296868
3848.931613,14952.160028,4737.318029,-80286.808190
3848.934146,15840.407159,11991.336260,-78141.740796
3848.936679,-19541.436869,-7254.018232,-86875.229473
3848.939213,-3404.947333,9622.677246,-77069.207099
3848.941746,5773.606348,7846.182985,-74158.044206
3848.944280,148.041188,8438.347739,-75383.797003
3848.946813,9326.594869,16876.695478,-66803.527426
3848.949346,-2960.823768,0.000000,-72319.415011
3848.951880,-7698.141797,7254.018232,-72625.853210
3848.954413,2072.576638,7994.224174,-68335.718422
3848.956947,-3849.070898,1924.535449,-72932.291410
3848.959480,2664.741391,3552.988522,-76149.892501
3848.962013,-2072.576638,10214.842000,-73238.729609
3848.964547,-7698.141797,4737.318029,-76762.768900
3848.967080,7402.059420,6957.935855,-75690.235202
3848.969614,4145.153275,12287.418637,-73238.729609
3848.972147,-7254.018232,6217.729913,-77682.083497
3848.974680,1184.329507,4145.153275,-77069.207099
3848.977214,-4737.318029,10510.924376,-72779.072310
3848.979747,3108.864956,-296.082377,-76149.892501
3848.982281,-3701.029710,5773.606348,-74004.825107
3848.984814,-148.041188,7846.182985,-77988.521696
3848.987347,-2368.659014,18949.272115,-72625.853210
3848.989881,8734.430116,5477.523971,-82125.437386
3848.992414,-21614.013506,-1036.288319,-76303.111601
3848.994948,26795.455100,21614.013506,-58836.134246
3848.997481,-38046.585419,-25167.002028,-81512.560987
3849.000014,-10510.924376,3552.988522,-65730.993728
3849.002548,15988.448347,8438.347739,-70787.224015
3849.005091,-27535.661042,-296.082377,-74924.139704
3849.007635,7402.059420,10362.883188,-68029.280222
3849.010179,-592.164754,19985.560434,-63126.269035
3849.012722,-20873.807564,-5773.606348,-72779.072310
3849.015266,1628.453072,10066.800811,-56997.505051
3849.017809,-10658.965565,-6217.729913,-66956.746525
3849.020353,-1480.411884,1184.329507,-74770.920605
3849.022896,-7402.059420,14656.077652,-70787.224015
3849.025440,-12435.459826,-4145.153275,-79673.931792
3849.027984,-888.247130,888.247130,-75230.577904
3849.030527,2516.700203,7994.224174,-72012.976812
3849.033071,-7402.059420,-5181.441594,-82278.656485
3849.035614,-2812.782580,7846.182985,-75537.016103
3849.038158,-3256.906145,148.041188,-77988.521696
3849.040702,-13619.789333,-5921.647536,-78448.178995
3849.043245,-5329.482782,4441.235652,-70174.347617
3849.045789,888.247130,1480.411884,-70634.004916
3849.048332,-16876.695478,-3997.112087,-72012.976812
3849.050876,3849.070898,5773.606348,-67109.965625
3849.053419,-8142.265362,-1332.370696,-78141.740796
3849.055963,-2664.741391,2812.782580,-77988.521696
3849.058507,-3997.112087,3256.906145,-79061.055394
3849.061050,-592.164754,-2960.823768,-79980.369991
3849.063594,-17320.819043,4145.153275,-72472.634111
3849.066137,13027.624579,-8734.430116,-79827.150892
3849.068681,-40267.203245,-5921.647536,-80899.684589
3849.071225,41747.615129,26203.290347,-66650.308326
3849.073768,-15396.283594,-10658.965565,-86262.353075
3849.076312,-33901.432144,0.000000,-79980.369991
3849.078855,36566.173535,33013.185013,-62513.392637
3849.081399,-31828.855506,-3997.112087,-82891.532884
3849.083942,4145.153275,-1628.453072,-83197.971083
3849.086486,16432.571912,9622.677246,-76303.111601
3849.089030,-24870.919651,-10214.842000,-91931.459760
3849.091573,8290.306550,8290.306550,-77069.207099
3849.094117,-3849.070898,7105.977043,-75537.016103
3849.096660,2220.617826,8290.306550,-78907.836294
3849.099204,13619.789333,21317.931130,-62973.049936
3849.101748,-8882.471304,-2664.741391,-73085.510509
3849.104291,-2516.700203,740.205942,-72625.853210
3849.106842,-3701.029710,13471.748144,-62360.173537
3849.109394,-1480.411884,3997.112087,-72012.976812
3849.111945,6809.894666,-148.041188,-78601.398095
3849.114497,-7254.018232,10658.965565,-73851.606007
3849.117048,7402.059420,9030.512492,-76149.892501
3849.119599,-2516.700203,7698.141797,-75537.016103
3849.122151,888.247130,8142.265362,-76149.892501
3849.124702,444.123565,4885.359217,-78141.740796
3849.127254,-3552.988522,14508.036463,-75690.235202
3849.129805,-2664.741391,-888.247130,-80133.589091
3849.132356,-592.164754,2664.741391,-75077.358804
3849.134908,-5329.482782,1776.494261,-75690.235202
3849.137459,14211.954086,12139.377449,-73391.948708
3849.140011,-14952.160028,-3552.988522,-82125.437386
3849.142562,9474.636058,23390.507767,-66803.527426
3849.145113,5329.482782,3552.988522,-75537.016103
3849.147665,-48409.468607,-29164.114115,-86262.353075
3849.150216,14508.036463,10510.924376,-63585.926334
3849.152768,2812.782580,148.041188,-73545.167808
3849.155319,-26203.290347,-1480.411884,-80899.684589
3849.157870,21169.889941,16136.489536,-73085.510509
3849.160422,-27683.702231,-5181.441594,-84883.381178
3849.162973,5625.565159,8882.471304,-80899.684589
3849.165525,-3849.070898,-444.123565,-76149.892501
3849.168076,-23538.548956,-21762.054695,-88713.858668
3849.170627,9178.553681,5329.482782,-73391.948708
3849.173179,-20281.642811,6069.688724,-74158.044206
3849.175730,3849.070898,2516.700203,-77835.302597
3849.178282,-4885.359217,9474.636058,-64198.802732
3849.180833,-13767.830521,3256.906145,-72166.195912
3849.183384,4885.359217,5477.523971,-72472.634111
3849.185936,-10658.965565,7846.182985,-68948.594820
3849.188487,-7994.224174,-444.123565,-76456.330700
3849.191038,2812.782580,7994.224174,-69714.690318
3849.193590,-14508.036463,5033.400406,-69714.690318
3849.196141,-4145.153275,-9178.553681,-79827.150892
3849.198693,-9178.553681,-2368.659014,-71859.757712
3849.201244,-2960.823768,-2220.617826,-75690.235202
3849.203795,-9918.759623,888.247130,-74158.044206
3849.206347,3108.864956,12879.583391,-69714.690318
3849.208905,-13619.789333,-148.041188,-79214.274493
3849.211463,7105.977043,15692.365970,-70174.347617
3849.214020,-27535.661042,-9030.512492,-77222.426198
3849.216578,11695.253884,11103.089130,-68182.499322
3849.219136,-10066.800811,-10658.965565,-81206.122788
3849.221694,-7698.141797,-592.164754,-79980.369991
3849.224252,36418.132346,39082.873738,-59755.448844
3849.226810,-24278.754898,-2072.576638,-81972.218286
3849.229368,-888.247130,14508.036463,-69714.690318
3849.231926,11251.130318,16284.530724,-62666.611736
3849.234484,-23834.631332,-5477.523971,-70787.224015
3849.237041,14952.160028,24426.796086,-58223.257848
3849.239599,-11399.171507,9770.718434,-66037.431928
3849.242157,-2368.659014,3256.906145,-76303.111601
3849.244715,6069.688724,19689.478057,-69255.033019
3849.247273,-2072.576638,5773.606348,-78601.398095
3849.249831,0.000000,7550.100608,-74311.263306
3849.252389,-1184.329507,8290.306550,-67263.184724
3849.254947,-7254.018232,-1480.411884,-77988.521696
3849.257504,-6217.729913,-5625.565159,-84423.723880
3849.260062,3404.947333,5625.565159,-72319.415011
3849.262620,6513.812290,3701.029710,-76149.892501
3849.265178,-7550.100608,16136.489536,-73391.948708
3849.267736,7254.018232,17616.901420,-68182.499322
3849.270294,-8142.265362,2516.700203,-74158.044206
3849.272852,4145.153275,7846.182985,-73085.510509
3849.275410,7994.224174,11103.089130,-75077.358804
3849.277968,-14508.036463,-1184.329507,-81818.999186
3849.280525,11547.212695,2960.823768,-77835.302597
3849.283083,-13915.871710,-1184.329507,-76915.987999
3849.285641,8142.265362,10214.842000,-75537.016103
3849.288199,-3552.988522,-8438.347739,-84423.723880
3849.290763,-3701.029710,22206.178260,-70480.785816
3849.293326,14359.995275,15396.283594,-66497.089226
3849.295890,-42635.862259,-31384.731941,-84423.723880
3849.298453,6069.688724,10214.842000,-63585.926334
3849.301017,11103.089130,-1924.535449,-75537.016103
3849.303580,-27979.784608,-3256.906145,-77988.521696
3849.306144,5921.647536,9474.636058,-70634.004916
3849.308707,-296.082377,7698.141797,-66803.527426
3849.311271,-23390.507767,3997.112087,-70480.785816
3849.313834,11991.336260,9918.759623,-66343.870127
3849.316398,-18505.148550,-9474.636058,-70480.785816
3849.318961,-5477.523971,5181.441594,-71400.100414
3849.321525,0.000000,13767.830521,-63279.488135
3849.324088,-18209.066173,-1036.288319,-75690.235202
3849.326652,9918.759623,7698.141797,-74004.825107
3849.329215,-6809.894666,4441.235652,-72166.195912
3849.331779,-13915.871710,-444.123565,-78754.617194
3849.334342,2960.823768,1332.370696,-75537.016103
3849.336906,-8438.347739,1332.370696,-71706.538613
3849.339470,-10214.842000,888.247130,-74770.920605
3849.342033,-3552.988522,3701.029710,-71706.538613
3849.344597,-19393.395680,-6957.935855,-73238.729609
3849.347160,6957.935855,4441.235652,-69255.033019
3849.349724,-18801.230927,1924.535449,-70480.785816
3849.352287,6661.853478,6661.853478,-74924.139704
3849.354851,-12287.418637,7254.018232,-77375.645298
3849.357414,3552.988522,10214.842000,-77988.521696
3849.359978,-22798.343014,-5921.647536,-80440.027290
3849.362541,11399.171507,5477.523971,-72625.853210
3849.365105,-24426.796086,-16432.571912,-84270.504780
3849.367668,8882.471304,18209.066173,-63585.926334
3849.370232,29756.278868,32865.143825,-65577.774629
3849.372795,-30644.525999,-6365.771101,-88254.201370
3849.375359,22058.137072,29164.114115,-66343.870127
3849.377922,-5773.606348,6069.688724,-70634.004916
3849.380486,-17468.860231,-9474.636058,-77835.302597
3849.383049,16136.489536,20429.683999,-66497.089226
3849.385613,-10510.924376,-296.082377,-82278.656485
3849.388176,1184.329507,5033.400406,-83044.751983
3849.390740,1480.411884,12287.418637,-72625.853210
3849.393307,-4293.194464,3701.029710,-76303.111601
3849.395875,3997.112087,13915.871710,-66956.746525
3849.398442,2664.741391,3552.988522,-69408.252119
3849.401010,-3552.988522,2220.617826,-79061.055394
3849.403577,-2072.576638,10955.047942,-69101.813920
3849.406145,7550.100608,7402.059420,-73698.386908
3849.408712,1628.453072,3552.988522,-76149.892501
3849.411280,11547.212695,19393.395680,-67722.842023
3849.413847,-7994.224174,3997.112087,-73698.386908
3849.416415,-5773.606348,8438.347739,-72779.072310
3849.418982,11991.336260,12731.542202,-72625.853210
3849.421550,-8438.347739,4145.153275,-78448.178995
3849.424117,5181.441594,9622.677246,-70480.785816
3849.426685,-5921.647536,5477.523971,-71093.662214
3849.429252,-6217.729913,7254.018232,-73698.386908
3849.431820,-296.082377,17320.819043,-66497.089226
3849.434387,20873.807564,5921.647536,-74617.701505
3849.436955,-29312.155303,-8142.265362,-79061.055394
3849.439522,14952.160028,19689.478057,-72319.415011
3849.442090,7846.182985,1628.453072,-72472.634111
3849.444657,-33161.226202,-26351.331535,-89939.611465
3849.447225,32569.061448,17912.983796,-64658.460031
3849.449792,-27535.661042,5181.441594,-70634.004916
3849.452360,-6661.853478,3552.988522,-70021.128517
3849.454927,11991.336260,17320.819043,-61440.858940
3849.457495,-21169.889941,-9030.512492,-74311.263306
3849.460062,5625.565159,3552.988522,-65271.336430
3849.462630,-10362.883188,-2072.576638,-71706.538613
3849.465197,-12879.583391,-1776.494261,-80746.465489
3849.467765,-296.082377,16136.489536,-69867.909418
3849.470332,-5477.523971,-7846.182985,-80899.684589
3849.472900,2664.741391,592.164754,-78294.959896
3849.475467,-5329.482782,12139.377449,-75383.797003
3849.478035,-9326.594869,-5181.441594,-79214.274493
3849.480602,2368.659014,2812.782580,-73391.948708
3849.483170,-7254.018232,9622.677246,-67722.842023
3849.485737,-12435.459826,-7105.977043,-77682.083497
3849.488305,-14211.954086,-6809.894666,-74464.482406
3849.490872,3404.947333,-296.082377,-73851.606007
3849.493440,-8142.265362,-3701.029710,-77528.864398
3849.496010,1184.329507,6661.853478,-71553.319513
3849.498581,-7846.182985,-1184.329507,-80746.465489
3849.501152,1776.494261,8734.430116,-77528.864398
3849.503722,-16284.530724,-444.123565,-78907.836294
3849.506293,16876.695478,-5181.441594,-80746.465489
3849.508864,-31680.814318,-10807.006753,-83197.971083
3849.511435,25759.166782,19837.519246,-66803.527426
3849.514006,-2516.700203,25018.960840,-67109.965625
3849.516577,-30644.525999,-592.164754,-80286.808190
3849.519147,33605.349767,31828.855506,-63585.926334
3849.521718,-21465.972318,2664.741391,-77988.521696
3849.524289,-7402.059420,-6217.729913,-83657.628382
3849.526860,15248.242405,9030.512492,-77682.083497
3849.529431,-18357.107362,-6957.935855,-89939.611465
3849.532001,7846.182985,8142.265362,-78754.617194
3849.534572,-5181.441594,9622.677246,-73085.510509
3849.537143,-1036.288319,7254.018232,-76149.892501
3849.539714,9474.636058,15988.448347,-64198.802732
3849.542285,-6069.688724,-2664.741391,-73238.729609
3849.544856,296.082377,5773.606348,-71706.538613
3849.547426,-3849.070898,15840.407159,-63126.269035
3849.549997,-1184.329507,2960.823768,-74158.044206
3849.552568,11695.253884,6217.729913,-75690.235202
3849.555139,3256.906145,20577.725188,-68948.594820
3849.557710,-5181.441594,1480.411884,-79520.712692
3849.560280,-3552.988522,5329.482782,-75383.797003
3849.562851,6513.812290,11251.130318,-72472.634111
3849.565422,-592.164754,-3256.906145,-79520.712692
3849.567993,1628.453072,10807.006753,-73851.606007
3849.570564,-5329.482782,2072.576638,-77222.426198
3849.573135,6661.853478,13471.748144,-71553.319513
3849.575705,-10066.800811,-5477.523971,-78754.617194
3849.578276,9770.718434,21021.848753,-66190.651027
3849.580847,0.000000,1628.453072,-82125.437386
3849.583418,-37306.379477,-12731.542202,-85036.600278
3849.585989,18949.272115,13323.706956,-60981.201641
3849.588559,-6365.771101,-6365.771101,-75690.235202
3849.591130,-18209.066173,-2664.741391,-79673.931792
3849.593701,14804.118840,17912.983796,-74004.825107
3849.596272,-22058.137072,-11103.089130,-86568.791274
3849.598817,10658.965565,7698.141797,-82585.094684
3849.601361,-10658.965565,-5921.647536,-84270.504780
3849.603906,-13471.748144,-21169.889941,-87794.544071
3849.606451,-148.041188,6365.771101,-72166.195912
3849.608995,-9918.759623,4885.359217,-73545.167808
3849.611540,-7994.224174,1480.411884,-75537.016103
3849.614085,7994.224174,9474.636058,-65424.555529
3849.616629,-9326.594869,-4589.276840,-76303.111601
3849.619174,-8882.471304,13175.665768,-79214.274493
3849.621719,444.123565,3997.112087,-72472.634111
3849.624263,1776.494261,-9474.636058,-79061.055394
3849.626808,-17024.736666,-3849.070898,-77682.083497
3849.629353,-5329.482782,-1480.411884,-74464.482406
3849.631897,-9474.636058,-1628.453072,-77375.645298
3849.634442,-1036.288319,7254.018232,-71553.319513
3849.636987,2220.617826,0.000000,-72012.976812
3849.639531,-16136.489536,2960.823768,-76609.549800
3849.642076,12583.501014,7402.059420,-76762.768900
3849.644621,-29016.072926,-2368.659014,-79980.369991
3849.647165,18061.024985,1776.494261,-79827.150892
3849.649710,-32124.937883,-13471.748144,-82738.313784
3849.652255,22650.301825,22798.343014,-66650.308326
3849.654799,5477.523971,-5181.441594,-86875.229473
3849.657344,-11547.212695,10955.047942,-73851.606007
3849.659889,27239.578666,33309.267390,-68642.156621
3849.662433,-8882.471304,740.205942,-80440.027290
3849.664978,-17912.983796,-7254.018232,-83044.751983
3849.667523,15840.407159,6957.935855,-78294.959896
3849.670067,-13175.665768,-11251.130318,-89786.392366
3849.672612,-296.082377,13915.871710,-80133.589091
3849.675157,6365.771101,11251.130318,-73391.948708
3849.677701,-8142.265362,7254.018232,-75383.797003
3849.680246,8734.430116,12879.583391,-68335.718422
3849.682791,5033.400406,2516.700203,-70021.128517
3849.685335,-5181.441594,5329.482782,-75996.673402
3849.687880,3997.112087,9770.718434,-68642.156621
3849.690425,-11991.336260,5329.482782,-72932.291410
3849.692969,8882.471304,13027.624579,-74311.263306
3849.695514,6217.729913,15692.365970,-68795.375720
3849.698059,-10510.924376,8438.347739,-74311.263306
3849.700583,8290.306550,11991.336260,-76456.330700
3849.703107,-5921.647536,3701.029710,-77528.864398
3849.705631,148.041188,2516.700203,-77988.521696
3849.708155,2368.659014,11695.253884,-70940.443115
3849.710679,-7846.182985,7402.059420,-73851.606007
3849.713203,-4589.276840,15248.242405,-67569.622924
3849.715727,23242.466579,9770.718434,-70634.004916
3849.718251,-30644.525999,-10807.006753,-82431.875585
3849.720775,-14508.036463,10066.800811,-73545.167808
3849.723299,13323.706956,5033.400406,-75537.016103
3849.725823,-41155.450375,-24722.878463,-87181.667672
3849.728347,32421.020260,15840.407159,-61440.858940
3849.730871,-27091.537477,1480.411884,-67569.622924
3849.733395,-26351.331535,-6661.853478,-79367.493593
3849.735919,20873.807564,17616.901420,-69408.252119
3849.738443,-22798.343014,-7994.224174,-78754.617194
3849.740967,-2664.741391,-10362.883188,-80593.246390
3849.743491,-148.041188,5033.400406,-67569.622924
3849.746015,-17616.901420,-5625.565159,-83197.971083
3849.748539,4589.276840,6809.894666,-76609.549800
3849.751063,1036.288319,5773.606348,-71553.319513
3849.753587,-6809.894666,-7994.224174,-83351.190182
3849.756111,-7994.224174,9030.512492,-70021.128517
3849.758635,-6513.812290,6365.771101,-70480.785816
3849.761159,-12583.501014,-10362.883188,-77682.083497
3849.763683,-7994.224174,7402.059420,-64658.460031
3849.766207,-1480.411884,-6661.853478,-73545.167808
3849.768731,-11103.089130,-5773.606348,-81359.341888
3849.771255,-4293.194464,4885.359217,-72012.976812
3849.773779,6365.771101,7846.182985,-70327.566716
3849.776303,-25463.084405,-1036.288319,-75537.016103
3849.778827,11695.253884,15248.242405,-71246.881314
3849.781351,-23834.631332,-11547.212695,-82431.875585
3849.783875,4441.235652,15396.283594,-70327.566716
3849.786399,3552.988522,-15988.448347,-84423.723880
3849.788923,-23390.507767,5773.606348,-69255.033019
3849.791447,37010.297100,29016.072926,-65271.336430
3849.793971,-35677.926404,-3701.029710,-82891.532884
3849.796495,25463.084405,30940.608376,-67569.622924
3849.799019,-2664.741391,5329.482782,-73698.386908
3849.801555,-23686.590144,-7105.977043,-78294.959896
3849.804092,14804.118840,19689.478057,-62206.954438
3849.806628,-2220.617826,11399.171507,-66190.651027
3849.809165,-11547.212695,5329.482782,-80593.246390
3849.811701,20577.725188,17616.901420,-71400.100414
3849.814238,-10658.965565,0.000000,-75077.358804
3849.816774,-3701.029710,5773.606348,-75537.016103
3849.819311,4441.235652,6957.935855,-69714.690318
3849.821847,-12435.459826,-1924.535449,-83504.409282
3849.824383,6365.771101,7846.182985,-75537.016103
3849.826920,-296.082377,3108.864956,-78448.178995
3849.829456,148.041188,6365.771101,-78754.617194
3849.831993,9178.553681,16728.654289,-68795.375720
3849.834529,-8290.306550,7994.224174,-77835.302597
3849.837066,3552.988522,11103.089130,-76303.111601
3849.839602,740.205942,4885.359217,-72932.291410
3849.842139,-6217.729913,7105.977043,-73391.948708
3849.844675,2664.741391,3108.864956,-76609.549800
3849.847211,-4441.235652,22650.301825,-65271.336430
3849.849748,9622.677246,-592.164754,-80899.684589
3849.852284,-21169.889941,3256.906145,-71706.538613
3849.854821,22798.343014,21465.972318,-62513.392637
3849.857357,-36862.255912,-28868.031738,-88713.858668
3849.859894,-8882.471304,9178.553681,-65577.774629
3849.862430,12139.377449,3701.029710,-74617.701505
3849.864967,-28719.990550,-7846.182985,-81052.903688
3849.867503,14063.912898,15248.242405,-75230.577904
3849.870040,-10510.924376,-2220.617826,-81972.218286
3849.872576,-6809.894666,8290.306550,-80746.465489
3849.875112,1332.370696,-740.205942,-77222.426198
3849.877649,-13175.665768,-13619.789333,-74464.482406
3849.880185,-15544.324782,-3256.906145,-74617.701505
3849.882722,4441.235652,17024.736666,-65424.555529
3849.885258,-5773.606348,-5477.523971,-79980.369991
3849.887795,-5181.441594,4737.318029,-71859.757712
3849.890331,0.000000,9326.594869,-69101.813920
3849.892868,-17616.901420,148.041188,-78141.740796
3849.895404,-4589.276840,444.123565,-74311.263306
3849.897940,-5181.441594,-4441.235652,-72932.291410
3849.900477,-9622.677246,-3701.029710,-77222.426198
3849.903024,5033.400406,3997.112087,-74158.044206
3849.905570,-22502.260637,-1776.494261,-74617.701505
3849.908117,6957.935855,9474.636058,-70787.224015
3849.910663,-14211.954086,-740.205942,-77528.864398
3849.913210,-4145.153275,11251.130318,-68642.156621
3849.915756,-7402.059420,-9474.636058,-76609.549800
3849.918303,-2220.617826,17172.777854,-62513.392637
3849.920850,7846.182985,-4589.276840,-78754.617194
3849.923396,-21169.889941,1332.370696,-71246.881314
3849.925943,34049.473332,29904.320057,-64658.460031
3849.928489,-30348.443622,-1776.494261,-85189.819378
3849.931036,11991.336260,24278.754898,-70174.347617
3849.933582,888.247130,10214.842000,-72012.976812
3849.936129,-18209.066173,-9770.718434,-77069.207099
3849.938676,12731.542202,18061.024985,-66497.089226
3849.941222,-6365.771101,-1776.494261,-83351.190182
3849.943769,-3108.864956,9178.553681,-79980.369991
3849.946315,6809.894666,18209.066173,-69255.033019
3849.948862,-3701.029710,-888.247130,-78754.617194
3849.951408,-6661.853478,3701.029710,-76915.987999
3849.953955,2960.823768,12139.377449,-72319.415011
3849.956502,-6365.771101,-3997.112087,-82891.532884
3849.959048,148.041188,11843.295072,-73851.606007
3849.961595,7402.059420,2072.576638,-79980.369991
3849.964141,-8734.430116,5033.400406,-77375.645298
3849.966688,11991.336260,23538.548956,-66956.746525
3849.969234,-148.041188,14508.036463,-71706.538613
3849.971781,-5625.565159,2368.659014,-75383.797003
3849.974328,6957.935855,5033.400406,-70327.566716
3849.976874,-11103.089130,3552.988522,-77222.426198
3849.979421,10510.924376,11695.253884,-72319.415011
3849.981967,-11251.130318,6069.688724,-70021.128517
3849.984514,1776.494261,25167.002028,-64964.898230
3849.987060,1480.411884,-148.041188,-78601.398095
3849.989607,-38046.585419,-13471.748144,-79827.150892
3849.992154,26055.249158,12583.501014,-67722.842023
3849.994700,-33013.185013,-23686.590144,-83197.971083
3849.997247,4293.194464,7994.224174,-66037.431928
3849.999793,444.123565,7994.224174,-65730.993728
3850.002340,-17468.860231,-7105.977043,-75383.797003
3850.004894,10658.965565,18949.272115,-66497.089226
3850.007449,-11991.336260,-1924.535449,-74770.920605
3850.010003,-9770.718434,-3701.029710,-74617.701505
3850.012558,1036.288319,-1628.453072,-71093.662214
3850.015112,-15100.201217,-7254.018232,-81512.560987
3850.017666,-6069.688724,9030.512492,-77682.083497
3850.020221,9474.636058,5773.606348,-70327.566716
3850.022775,-8290.306550,1480.411884,-72625.853210
3850.025330,-11103.089130,2368.659014,-74924.139704
3850.027884,-5773.606348,2368.659014,-71553.319513
3850.030439,-16728.654289,-7698.141797,-74158.044206
3850.032993,1924.535449,-4441.235652,-74770.920605
3850.035547,-3552.988522,3404.947333,-75843.454302
3850.038102,-15544.324782,-3552.988522,-79367.493593
3850.040656,5773.606348,10214.842000,-70634.004916
3850.043211,-21465.972318,0.000000,-75843.454302
3850.045765,10658.965565,5921.647536,-75230.577904
3850.048319,-24574.837274,-4885.359217,-77375.645298
3850.050874,12435.459826,12879.583391,-73391.948708
3850.053428,-17024.736666,-12287.418637,-84117.285680
3850.055983,-28719.990550,3552.988522,-71093.662214
3850.058537,38490.708984,34197.514520,-62360.173537
3850.061092,-27683.702231,-2368.659014,-82585.094684
3850.063646,7254.018232,23686.590144,-69101.813920
3850.066200,11547.212695,9918.759623,-71400.100414
3850.068755,-30052.361245,-10658.965565,-78294.959896
3850.071309,20281.642811,18949.272115,-68029.280222
3850.073864,-12435.459826,148.041188,-81052.903688
3850.076418,-5033.400406,7550.100608,-80286.808190
3850.078973,14952.160028,19393.395680,-67416.403824
3850.081527,-12287.418637,-888.247130,-77069.207099
3850.084081,4589.276840,11547.212695,-69561.471218
3850.086636,1628.453072,7846.182985,-68335.718422
3850.089190,-9326.594869,3997.112087,-78294.959896
3850.091745,444.123565,6069.688724,-73085.510509
3850.094299,3997.112087,5625.565159,-71706.538613
3850.096854,-296.082377,6809.894666,-78448.178995
3850.099408,20281.642811,20429.683999,-71859.757712
3850.101962,-15840.407159,12435.459826,-72932.291410
3850.104517,2812.782580,1036.288319,-73698.386908
3850.107078,-2664.741391,7254.018232,-70940.443115
3850.109640,-3404.947333,-4589.276840,-83197.971083
3850.112201,12287.418637,19837.519246,-74158.044206
3850.114762,-5773.606348,-888.247130,-84883.381178
3850.117324,-19245.354492,12731.542202,-69714.690318
3850.119885,22650.301825,12435.459826,-66037.431928
3850.122446,-41747.615129,-29608.237680,-85036.600278
3850.125008,26203.290347,10955.047942,-64811.679131
3850.127569,11843.295072,10362.883188,-74464.482406
3850.130130,-28571.949361,-5477.523971,-84730.162079
3850.132692,13175.665768,9770.718434,-76149.892501
3850.135253,5033.400406,20429.683999,-62206.954438
3850.137814,-17912.983796,3701.029710,-71400.100414
3850.140376,3256.906145,5625.565159,-66650.308326
3850.142937,-16432.571912,-7994.224174,-71706.538613
3850.145498,-6069.688724,-7402.059420,-79980.369991
3850.148060,1776.494261,21910.095883,-67569.622924
3850.150621,0.000000,1184.329507,-78141.740796
3850.153182,-6513.812290,-4441.235652,-77835.302597
3850.155744,-6513.812290,11547.212695,-65118.117330
3850.158305,-12139.377449,-4589.276840,-77528.864398
3850.160866,-13767.830521,-6217.729913,-74924.139704
3850.163428,3701.029710,444.123565,-71859.757712
3850.165989,-2220.617826,740.205942,-75996.673402
3850.168550,-16876.695478,0.000000,-74924.139704
3850.171112,4293.194464,10066.800811,-69561.471218
3850.173673,-14508.036463,-4145.153275,-77375.645298
3850.176234,1036.288319,13767.830521,-66343.870127
3850.178796,-6661.853478,-14063.912898,-76303.111601
3850.181357,-9622.677246,16580.613101,-62819.830836
3850.183919,16728.654289,-148.041188,-75690.235202
3850.186480,-31976.896694,-148.041188,-74311.263306
3850.189041,39823.079680,32865.143825,-62819.830836
3850.191603,-26351.331535,-1628.453072,-83197.971083
3850.194164,3701.029710,23538.548956,-70787.224015
3850.196725,14804.118840,12879.583391,-71246.881314
3850.199287,-28127.825796,-12287.418637,-75843.454302
3850.201848,9622.677246,18505.148550,-62513.392637
3850.204409,12139.377449,18061.024985,-64811.679131
3850.206971,-11991.336260,296.082377,-80440.027290
3850.209509,10510.924376,16876.695478,-73085.510509
3850.212047,-2960.823768,2072.576638,-73545.167808
3850.214585,-12435.459826,4145.153275,-77682.083497
3850.217123,12435.459826,9030.512492,-74464.482406
3850.219661,-9770.718434,1036.288319,-80440.027290
3850.222199,-148.041188,6513.812290,-76915.987999
3850.224737,6661.853478,10066.800811,-72012.976812
3850.227275,-6217.729913,9030.512492,-78141.740796
3850.229813,19837.519246,25463.084405,-69101.813920
3850.232351,-15692.365970,2664.741391,-74311.263306
3850.234889,-1184.329507,148.041188,-75537.016103
3850.237427,3404.947333,1036.288319,-73698.386908
3850.239965,10955.047942,9918.759623,-75843.454302
3850.242503,-14952.160028,-1036.288319,-82431.875585
3850.245041,22946.384202,28868.031738,-63432.707234
3850.247579,-25611.125593,-9918.759623,-81665.780087
3850.250117,-19393.395680,-1480.411884,-70480.785816
3850.252655,18209.066173,9474.636058,-66803.527426
3850.255193,-35085.761651,-27387.619854,-89479.954166
3850.257731,21614.013506,17172.777854,-62513.392637
3850.260269,-18949.272115,5477.523971,-66803.527426
3850.262806,-10658.965565,-1184.329507,-68642.156621
3850.265344,9622.677246,21317.931130,-57916.819649
3850.267882,-12139.377449,2072.576638,-70940.443115
3850.270420,-3849.070898,-9474.636058,-79673.931792
3850.272958,-7254.018232,148.041188,-73545.167808
3850.275496,-5921.647536,-7254.018232,-84270.504780
3850.278034,-4589.276840,3108.864956,-77835.302597
3850.280572,3849.070898,9622.677246,-65884.212828
3850.283110,-5773.606348,-1924.535449,-73085.510509
3850.285648,-13323.706956,4589.276840,-70021.128517
3850.288186,-13619.789333,-3108.864956,-74464.482406
3850.290724,-5921.647536,-10066.800811,-79827.150892
3850.293262,592.164754,4293.194464,-72932.291410
3850.295800,-7994.224174,-2516.700203,-74617.701505
3850.298338,-8290.306550,9030.512492,-70327.566716
3850.300876,-6513.812290,2812.782580,-76915.987999
3850.303414,3552.988522,1036.288319,-78141.740796
3850.305952,-18949.272115,-2368.659014,-77222.426198
3850.308490,19097.313304,13915.871710,-68335.718422
3850.311038,-17764.942608,-9474.636058,-83044.751983
3850.313586,-8438.347739,14952.160028,-65424.555529
3850.316134,33605.349767,20429.683999,-67109.965625
3850.318682,-32272.979071,-444.123565,-82431.875585
3850.321229,32865.143825,31532.773129,-65884.212828
3850.323777,-19393.395680,2072.576638,-81052.903688
3850.326325,-14508.036463,-11103.089130,-86568.791274
3850.328873,23094.425390,2516.700203,-77528.864398
3850.331421,-20429.683999,-7994.224174,-89479.954166
3850.333968,10362.883188,14804.118840,-75996.673402
3850.336516,592.164754,23242.466579,-66037.431928
3850.339064,-7994.224174,-7698.141797,-83197.971083
3850.341612,4145.153275,8734.430116,-67263.184724
3850.344160,1480.411884,14804.118840,-64198.802732
3850.346707,-1184.329507,-296.082377,-80899.684589
3850.349255,740.205942,3108.864956,-74464.482406
3850.351803,148.041188,18505.148550,-68182.499322
3850.354351,10510.924376,9770.718434,-76915.987999
3850.356899,-3552.988522,22206.178260,-73545.167808
3850.359447,4441.235652,1332.370696,-81665.780087
3850.361994,-8882.471304,-5033.400406,-79520.712692
3850.364542,-2368.659014,296.082377,-78141.740796
3850.367090,14952.160028,4885.359217,-78448.178995
3850.369638,-19245.354492,2368.659014,-79214.274493
3850.372186,23390.507767,31384.731941,-62053.735338
3850.374733,-18357.107362,-11843.295072,-81359.341888
3850.377281,-30496.484810,-592.164754,-81206.122788
3850.379829,40859.367998,13767.830521,-59142.572446
3850.382377,-31088.649564,-18209.066173,-79367.493593
3850.384925,-8290.306550,740.205942,-75690.235202
3850.387472,14952.160028,15248.242405,-68488.937521
3850.390020,-27387.619854,-11843.295072,-83197.971083
3850.392568,17912.983796,10066.800811,-74924.139704
3850.395116,-11695.253884,-148.041188,-74158.044206
3850.397664,-14211.954086,-9030.512492,-81972.218286
3850.400211,1776.494261,1332.370696,-72472.634111
3850.402759,-12583.501014,-4441.235652,-81972.218286
3850.405307,592.164754,1184.329507,-81359.341888
3850.407855,3701.029710,9918.759623,-68642.156621
3850.410403,-13175.665768,-5477.523971,-79367.493593
3850.412959,-6957.935855,-6069.688724,-74770.920605
3850.415515,888.247130,-2664.741391,-72625.853210
3850.418071,-7994.224174,-9178.553681,-82125.437386
3850.420627,3404.947333,4737.318029,-73391.948708
3850.423182,-8882.471304,888.247130,-74617.701505
3850.425738,-11547.212695,-3701.029710,-82891.532884
3850.428294,3108.864956,3552.988522,-72166.195912
3850.430850,-7846.182985,-1332.370696,-75383.797003
3850.433406,-2072.576638,-14359.995275,-81052.903688
3850.435962,-14952.160028,9030.512492,-69867.909418
3850.438518,22650.301825,9326.594869,-77682.083497
3850.441074,-33901.432144,-5477.523971,-84270.504780
3850.443630,33753.390955,29904.320057,-65884.212828
3850.446186,-2812.782580,444.123565,-82125.437386
3850.448742,-12435.459826,11103.089130,-71859.757712
3850.451298,19097.313304,9918.759623,-70480.785816
3850.453854,-12731.542202,-9326.594869,-72472.634111
3850.456410,-6365.771101,3108.864956,-71553.319513
3850.458966,21762.054695,23094.425390,-65118.117330
3850.461522,-9770.718434,4441.235652,-81665.780087
3850.464078,2368.659014,4885.359217,-80286.808190
3850.466634,-2220.617826,10214.842000,-67263.184724
3850.469190,-12879.583391,-2072.576638,-80133.589091
3850.471746,740.205942,6809.894666,-75230.577904
3850.474302,444.123565,11547.212695,-73545.167808
3850.476858,3404.947333,1628.453072,-81206.122788
3850.479414,3849.070898,13323.706956,-74617.701505
3850.481970,5477.523971,20873.807564,-73851.606007
3850.484526,-3552.988522,3849.070898,-75843.454302
3850.487082,-6661.853478,4293.194464,-73391.948708
3850.489638,-3552.988522,-2220.617826,-75690.235202
3850.492194,14359.995275,9326.594869,-72932.291410
3850.494756,-14952.160028,-1628.453072,-81359.341888
3850.497319,12583.501014,29016.072926,-68335.718422
3850.499881,-7994.224174,-4441.235652,-82738.313784
3850.502444,-34049.473332,-10066.800811,-76456.330700
3850.505007,27979.784608,6809.894666,-62973.049936
3850.507570,-41451.532752,-22354.219448,-80899.684589
3850.510133,18801.230927,10362.883188,-65577.774629
3850.512696,-9326.594869,12879.583391,-65424.555529
3850.515259,-17468.860231,444.123565,-72625.853210
3850.517821,15396.283594,18653.189738,-61287.639840
3850.520384,-19097.313304,888.247130,-71400.100414
3850.522947,-740.205942,148.041188,-73545.167808
3850.525510,-1184.329507,0.000000,-71246.881314
3850.528073,-12287.418637,-2516.700203,-80746.465489
3850.530636,-4737.318029,2812.782580,-82431.875585
3850.533198,888.247130,12583.501014,-67109.965625
3850.535761,-9178.553681,-5477.523971,-77528.864398
3850.538324,-11399.171507,2220.617826,-70787.224015
3850.540887,-8142.265362,-3404.947333,-71706.538613
3850.543450,-4145.153275,-10955.047942,-79673.931792
3850.546013,-7105.977043,4441.235652,-71093.662214
3850.548576,2220.617826,4589.276840,-73085.510509
3850.551138,-19393.395680,-5033.400406,-84576.942979
3850.553701,2072.576638,11103.089130,-72625.853210
3850.556264,-20429.683999,-9474.636058,-79061.055394
3850.558827,11695.253884,4441.235652,-75230.577904
3850.561390,4293.194464,148.041188,-75996.673402
3850.563953,-18505.148550,3552.988522,-73545.167808
3850.566515,30348.443622,31828.855506,-66497.089226
3850.569078,-29756.278868,-1924.535449,-83657.628382
3850.571641,17616.901420,22354.219448,-68642.156621
3850.574204,296.082377,10214.842000,-75383.797003
3850.576767,-17320.819043,-11991.336260,-83351.190182
3850.579330,9770.718434,10066.800811,-72012.976812
3850.581893,-9918.759623,-2516.700203,-83657.628382
3850.584455,1776.494261,11399.171507,-77222.426198
3850.587018,7698.141797,28571.949361,-62360.173537
3850.589581,-2072.576638,-6365.771101,-78294.959896
3850.592144,-6957.935855,3701.029710,-71093.662214
3850.594707,4293.194464,7846.182985,-69714.690318
3850.597275,5921.647536,2812.782580,-80746.465489
3850.599844,-740.205942,8586.388927,-78448.178995
3850.602412,10214.842000,17764.942608,-72012.976812
3850.604981,-2516.700203,15988.448347,-72625.853210
3850.607549,-1924.535449,6661.853478,-74464.482406
3850.610118,3256.906145,-1628.453072,-75230.577904
3850.612686,-9770.718434,1332.370696,-73545.167808
3850.615255,15988.448347,9918.759623,-71553.319513
3850.617823,-16432.571912,1332.370696,-75996.673402
3850.620392,24130.713709,28275.866984,-64658.460031
3850.622960,-22354.219448,-11991.336260,-80899.684589
3850.625528,-21317.931130,8438.347739,-68335.718422
3850.628097,20133.601622,2220.617826,-73851.606007
3850.630665,-41895.656317,-26499.372724,-87028.448573
3850.633234,16876.695478,17024.736666,-66803.527426
3850.635802,8586.388927,12287.418637,-67569.622924
3850.638371,-24426.796086,-1480.411884,-71246.881314
3850.640939,12287.418637,15692.365970,-64964.898230
3850.643508,-12139.377449,-1036.288319,-70327.566716
3850.646076,-8734.430116,-2664.741391,-78294.959896
3850.648645,2516.700203,-1628.453072,-75690.235202
3850.651213,-17320.819043,-7846.182985,-84423.723880
3850.653782,-9918.759623,7254.018232,-79827.150892
3850.656350,2368.659014,4885.359217,-72779.072310
3850.658919,-14508.036463,-3108.864956,-80440.027290
3850.661487,-3701.029710,4885.359217,-70787.224015
3850.664056,-15692.365970,-2516.700203,-74770.920605
3850.666624,-4885.359217,-8882.471304,-79214.274493
3850.669193,-2664.741391,148.041188,-67876.061123
3850.671761,-6069.688724,10510.924376,-72012.976812
3850.674330,-14804.118840,-1776.494261,-78141.740796
3850.676898,3997.112087,14804.118840,-66343.870127
3850.679467,-22058.137072,-11251.130318,-79520.712692
3850.682035,14804.118840,16136.489536,-66190.651027
3850.684604,-3108.864956,-6661.853478,-81818.999186
3850.687172,-16580.613101,5033.400406,-72625.853210
3850.689740,32717.102636,30496.484810,-64198.802732
3850.692309,-35085.761651,-1924.535449,-82738.313784
3850.694877,26351.331535,23242.466579,-67263.184724
3850.697446,-2072.576638,9918.759623,-74924.139704
3850.700018,-18801.230927,-11695.253884,-85496.257577
3850.702590,12287.418637,7254.018232,-73238.729609
3850.705162,-13767.830521,-6661.853478,-83810.847481
3850.707735,-888.247130,1184.329507,-80899.684589
3850.710307,11843.295072,23242.466579,-65577.774629
3850.712879,-7994.224174,1184.329507,-75383.797003
3850.715451,-7846.182985,1480.411884,-75843.454302
3850.718023,-1184.329507,14063.912898,-66650.308326
3850.720596,3552.988522,1332.370696,-81359.341888
3850.723168,-888.247130,9622.677246,-73851.606007
3850.725740,11399.171507,18357.107362,-71246.881314
3850.728312,-7105.977043,8734.430116,-78754.617194
3850.730884,1184.329507,12287.418637,-72012.976812
3850.733457,2812.782580,740.205942,-77682.083497
3850.736029,-10658.965565,-3404.947333,-77988.521696
3850.738601,19097.313304,15988.448347,-72472.634111
3850.741173,-8882.471304,-11843.295072,-88713.858668
3850.743745,-29904.320057,5625.565159,-75230.577904
3850.746318,30940.608376,16580.613101,-63892.364533
3850.748890,-40711.326810,-31236.690752,-85036.600278
3850.751462,1184.329507,6513.812290,-65730.993728
3850.754034,7550.100608,-2516.700203,-77069.207099
3850.756606,-36862.255912,-10658.965565,-85496.257577
3850.759179,23094.425390,14063.912898,-79367.493593
3850.761751,-14952.160028,-6365.771101,-86568.791274
3850.764323,-5329.482782,-1184.329507,-88407.420469
3850.766895,6809.894666,740.205942,-75690.235202
3850.769467,-23390.507767,-10362.883188,-77375.645298
3850.772040,2072.576638,-1184.329507,-71859.757712
3850.774612,-5477.523971,6365.771101,-68182.499322
3850.777184,-12287.418637,-740.205942,-83197.971083
3850.779756,6809.894666,8290.306550,-69867.909418
3850.782328,-5625.565159,-444.123565,-72012.976812
3850.784901,-17172.777854,-6365.771101,-80593.246390
3850.787473,3997.112087,0.000000,-71400.100414
3850.790045,-20133.601622,-6365.771101,-74770.920605
3850.792617,10807.006753,4589.276840,-73545.167808
3850.795189,-17764.942608,7105.977043,-73391.948708
3850.797761,-1628.453072,2664.741391,-79214.274493
3850.800334,-16136.489536,-740.205942,-76149.892501
3850.802909,13767.830521,2220.617826,-76456.330700
3850.805485,-27091.537477,-14211.954086,-84576.942979
3850.808060,21465.972318,24426.796086,-63892.364533
3850.810636,888.247130,-5773.606348,-87181.667672
3850.813211,-6513.812290,9178.553681,-76149.892501
3850.815787,21021.848753,25167.002028,-67876.061123
3850.818362,-9622.677246,-148.041188,-84117.285680
3850.820938,-10807.006753,-6217.729913,-82738.313784
3850.823513,9918.759623,4737.318029,-73085.510509
3850.826089,-11103.089130,-7254.018232,-80746.465489
3850.828664,7994.224174,19541.436869,-68029.280222
3850.831240,6365.771101,22206.178260,-66497.089226
3850.833815,-7698.141797,-9030.512492,-82585.094684
3850.836391,-3701.029710,5181.441594,-68948.594820
3850.838966,5921.647536,10510.924376,-66497.089226
3850.841542,-8290.306550,-444.123565,-79520.712692
3850.844117,8882.471304,14952.160028,-70634.004916
3850.846693,12879.583391,14508.036463,-76303.111601
3850.849268,-18061.024985,6217.729913,-80440.027290
3850.851843,6809.894666,9622.677246,-74617.701505
3850.854419,3701.029710,1036.288319,-76915.987999
3850.856994,-3256.906145,-3404.947333,-77988.521696
3850.859570,3404.947333,16432.571912,-69408.252119
3850.862145,5329.482782,7846.182985,-79061.055394
3850.864721,-24426.796086,4589.276840,-73851.606007
3850.867296,29460.196492,16876.695478,-62819.830836
3850.869872,-38934.832549,-28423.908173,-84576.942979
3850.872447,2072.576638,1036.288319,-67109.965625
3850.875023,2516.700203,740.205942,-77069.207099
3850.877598,-27831.743419,-13915.871710,-88100.982270
3850.880174,19837.519246,14063.912898,-79673.931792
3850.882749,-17912.983796,-5033.400406,-85189.819378
3850.885325,-5921.647536,-6069.688724,-86875.229473
3850.887900,1628.453072,3552.988522,-75537.016103
3850.890476,-14952.160028,-8438.347739,-72779.072310
3850.893051,-4589.276840,-148.041188,-71706.538613
3850.895627,-7846.182985,14952.160028,-66956.746525
3850.898202,-3701.029710,-3701.029710,-81512.560987
3850.900778,-3997.112087,3404.947333,-74311.263306
3850.903353,-10510.924376,-3552.988522,-75690.235202
3850.905932,-8586.388927,-2220.617826,-76609.549800
3850.908510,-4293.194464,148.041188,-72779.072310
3850.911088,-8734.430116,-12731.542202,-79980.369991
3850.913666,-2368.659014,10214.842000,-69867.909418
3850.916244,-7402.059420,4737.318029,-70174.347617
3850.918823,-5329.482782,6661.853478,-70634.004916
3850.921401,-14508.036463,-3997.112087,-70940.443115
3850.923979,5181.441594,18209.066173,-58836.134246
3850.926557,3108.864956,9030.512492,-72166.195912
3850.929136,-35825.967593,-2812.782580,-82431.875585
3850.931714,36714.214723,33309.267390,-64352.021832
3850.934292,-16876.695478,3701.029710,-81665.780087
3850.936870,-3108.864956,8586.388927,-72012.976812
3850.939448,18505.148550,20725.766376,-64658.460031
3850.942027,-26647.413912,-7402.059420,-75383.797003
3850.944605,13619.789333,11547.212695,-68948.594820
3850.947183,-7698.141797,6365.771101,-73085.510509
3850.949761,-3701.029710,3256.906145,-77222.426198
3850.952340,14952.160028,22206.178260,-64045.583633
3850.954918,-7846.182985,4145.153275,-71706.538613
3850.957496,-3701.029710,-1332.370696,-79367.493593
3850.960074,-3849.070898,13323.706956,-70021.128517
3850.962652,7698.141797,3404.947333,-78907.836294
3850.965231,6661.853478,10658.965565,-77375.645298
3850.967809,-8438.347739,13915.871710,-71093.662214
3850.970387,2220.617826,8882.471304,-72012.976812
3850.972965,2516.700203,2812.782580,-73238.729609
3850.975544,-2072.576638,444.123565,-74158.044206
3850.978122,8734.430116,11399.171507,-74770.920605
3850.980700,-2368.659014,5477.523971,-83044.751983
3850.983278,-24574.837274,4441.235652,-78141.740796
3850.985856,27535.661042,12731.542202,-69561.471218
3850.988435,-39675.038491,-30644.525999,-88867.077768
3850.991013,8438.347739,6365.771101,-66803.527426
3850.993591,-4589.276840,-1332.370696,-77069.207099
3850.996169,-25759.166782,-10955.047942,-86875.229473
3850.998748,21465.972318,12287.418637,-80593.246390
3851.001326,-19837.519246,-5921.647536,-84730.162079
3851.003904,-1480.411884,-5329.482782,-86109.133975
3851.006482,592.164754,4885.359217,-71093.662214
3851.009062,-21762.054695,-4885.359217,-73238.729609
3851.011642,-2072.576638,-1628.453072,-72472.634111
3851.014221,-2368.659014,15248.242405,-65118.117330
3851.016801,-4293.194464,-1036.288319,-77375.645298
3851.019381,-4441.235652,3849.070898,-70787.224015
3851.021960,-10807.006753,-2072.576638,-73391.948708
3851.024540,-2220.617826,-5329.482782,-76149.892501
3851.027120,-10214.842000,-2960.823768,-72472.634111
3851.029699,-1332.370696,-8586.388927,-80286.808190
3851.032279,-6957.935855,296.082377,-79214.274493
3851.034859,-3404.947333,3404.947333,-74924.139704
3851.037438,-9474.636058,2220.617826,-76609.549800
3851.040018,-8734.430116,-8142.265362,-79061.055394
3851.042598,-27979.784608,-5921.647536,-76762.768900
3851.045178,34345.555709,20725.766376,-66650.308326
3851.047757,-21465.972318,-3108.864956,-81665.780087
3851.050337,2960.823768,18949.272115,-68182.499322
3851.052917,15988.448347,20873.807564,-66650.308326
3851.055496,-17764.942608,-4737.318029,-76609.549800
3851.058076,21317.931130,14952.160028,-66650.308326
3851.060656,-16728.654289,1184.329507,-70174.347617
3851.063235,-1628.453072,2664.741391,-74924.139704
3851.065815,11399.171507,14656.077652,-70480.785816
3851.068395,-2072.576638,592.164754,-83657.628382
3851.070974,6217.729913,8290.306550,-77988.521696
3851.073554,-5625.565159,16136.489536,-67109.965625
3851.076134,-6217.729913,-5477.523971,-81818.999186
3851.078714,-2220.617826,1776.494261,-77222.426198
3851.081293,12287.418637,20725.766376,-67569.622924
3851.083873,444.123565,7846.182985,-79061.055394
3851.086453,-8882.471304,9622.677246,-73698.386908
3851.089032,3701.029710,8290.306550,-73698.386908
3851.091612,-3997.112087,-148.041188,-78294.959896
3851.094192,13619.789333,11843.295072,-72625.853210
3851.096771,-8142.265362,2664.741391,-75537.016103
3851.099351,16876.695478,21614.013506,-66956.746525
3851.101931,-30792.567187,-14804.118840,-84576.942979
3851.104510,-2368.659014,13619.789333,-66650.308326
3851.107090,5033.400406,-4145.153275,-80440.027290
3851.109670,-33457.308578,-18801.230927,-84883.381178
3851.112251,11103.089130,15988.448347,-66343.870127
3851.114832,-21762.054695,-4441.235652,-76915.987999
3851.117412,-19689.478057,-2368.659014,-68335.718422
3851.119993,6661.853478,23982.672521,-57916.819649
3851.122574,-9030.512492,592.164754,-70940.443115
3851.125155,-7550.100608,-1628.453072,-75843.454302
3851.127736,-7105.977043,3256.906145,-72932.291410
3851.130317,-7402.059420,-5181.441594,-80899.684589
3851.132898,-6217.729913,5181.441594,-78754.617194
3851.135479,-1036.288319,2516.700203,-76609.549800
3851.138060,-14508.036463,-2368.659014,-79214.274493
3851.140640,-2664.741391,3404.947333,-74158.044206
3851.143221,-11103.089130,-6217.729913,-75690.235202
3851.145802,-8438.347739,-7402.059420,-74158.044206
3851.148383,1924.535449,3849.070898,-70480.785816
3851.150964,-11251.130318,1036.288319,-73391.948708
3851.153545,-3404.947333,15396.283594,-67569.622924
3851.156126,-8586.388927,-9770.718434,-74770.920605
3851.158707,-8290.306550,14656.077652,-63432.707234
3851.161287,23982.672521,5033.400406,-75383.797003
3851.163868,-29460.196492,-5921.647536,-82738.313784
3851.166449,34345.555709,37010.297100,-62513.392637
3851.169030,-23538.548956,-4737.318029,-86109.133975
3851.171611,-2960.823768,13619.789333,-73698.386908
3851.174192,21614.013506,21762.054695,-68948.594820
3851.176773,-19245.354492,-10066.800811,-77988.521696
3851.179354,3849.070898,10807.006753,-69867.909418
3851.181935,-7698.141797,-592.164754,-74924.139704
3851.184515,-2664.741391,9030.512492,-74924.139704
3851.187096,18357.107362,25759.166782,-65884.212828
3851.189677,-2220.617826,-2072.576638,-76456.330700
3851.192258,-14804.118840,-592.164754,-81206.122788
3851.194839,7402.059420,10066.800811,-73085.510509
3851.197420,9178.553681,6809.894666,-77222.426198
3851.200001,-3701.029710,11547.212695,-75843.454302
3851.202582,3552.988522,15396.283594,-68182.499322
3851.205162,-6809.894666,8586.388927,-74004.825107
3851.207743,-3404.947333,6957.935855,-73391.948708
3851.210324,15840.407159,7994.224174,-70021.128517
3851.212905,-16136.489536,4145.153275,-72932.291410
3851.215487,29756.278868,18061.024985,-66343.870127
3851.218069,-42931.944636,-13027.624579,-83044.751983
3851.220650,6365.771101,14359.995275,-68029.280222
3851.223232,4293.194464,-7698.141797,-80899.684589
3851.225814,-35825.967593,-21021.848753,-81206.122788
3851.228396,15988.448347,10658.965565,-63892.364533
3851.230978,-7846.182985,9178.553681,-62819.830836
3851.233559,-20577.725188,1184.329507,-68948.594820
3851.236141,15396.283594,19985.560434,-58529.696047
3851.238723,-20429.683999,1184.329507,-70021.128517
3851.241305,-2516.700203,-2220.617826,-74617.701505
3851.243887,-4885.359217,5181.441594,-66497.089226
3851.246468,-10066.800811,-9622.677246,-83044.751983
3851.249050,2220.617826,6661.853478,-75537.016103
3851.251632,-11399.171507,740.205942,-79214.274493
3851.254214,-9770.718434,-5625.565159,-83351.190182
3851.256796,1332.370696,5033.400406,-73085.510509
3851.259377,-22206.178260,-11991.336260,-81206.122788
3851.261959,3108.864956,-3256.906145,-72012.976812
3851.264541,-5773.606348,8438.347739,-69101.813920
3851.267123,-2960.823768,1332.370696,-74770.920605
3851.269705,-10214.842000,9622.677246,-68488.937521
3851.272286,-1184.329507,-3701.029710,-73085.510509
3851.274868,-17320.819043,-3997.112087,-74770.920605
3851.277450,30348.443622,22650.301825,-63892.364533
3851.280032,-31976.896694,-10362.883188,-87181.667672
3851.282614,18801.230927,28275.866984,-66650.308326
3851.285195,5477.523971,11695.253884,-76149.892501
3851.287777,-14359.995275,-3108.864956,-74464.482406
3851.290359,14804.118840,24278.754898,-61287.639840
3851.292941,-14952.160028,-5625.565159,-72625.853210
3851.295523,6809.894666,6365.771101,-72166.195912
3851.298104,11547.212695,15840.407159,-70480.785816
3851.300686,6513.812290,6217.729913,-79673.931792
3851.303268,-3404.947333,1332.370696,-83504.409282
3851.305850,-5773.606348,15100.201217,-67416.403824
3851.308432,-6069.688724,592.164754,-74770.920605
3851.311013,740.205942,11103.089130,-75690.235202
3851.313595,19541.436869,14063.912898,-73085.510509
3851.316177,-11251.130318,3849.070898,-80593.246390
3851.318759,2812.782580,13175.665768,-74311.263306
3851.321341,-1184.329507,10658.965565,-72319.415011
3851.323922,-4589.276840,-444.123565,-75843.454302
3851.326504,21169.889941,14508.036463,-68642.156621
3851.329086,-8734.430116,-8142.265362,-84883.381178
3851.331668,-19985.560434,19097.313304,-69101.813920
3851.334250,20281.642811,9030.512492,-64505.240932
3851.336831,-37158.338288,-28423.908173,-88713.858668
3851.339413,-10807.006753,888.247130,-71093.662214
3851.341995,13175.665768,3997.112087,-74617.701505
3851.344577,-30792.567187,-12139.377449,-87794.544071
3851.347159,21021.848753,13619.789333,-79061.055394
3851.349740,-16432.571912,-1332.370696,-82125.437386
3851.352322,-18357.107362,-11251.130318,-87794.544071
3851.354904,8734.430116,6957.935855,-72166.195912
3851.357486,-17024.736666,-7994.224174,-79827.150892
3851.360068,740.205942,296.082377,-72012.976812
3851.362649,-5181.441594,10362.883188,-66956.746525
3851.365231,-8142.265362,-3108.864956,-78907.836294
3851.367813,1776.494261,8142.265362,-67876.061123
3851.370395,-14656.077652,148.041188,-73238.729609
3851.372977,-20577.725188,-13767.830521,-79367.493593
3851.375558,8734.430116,-3256.906145,-72625.853210
3851.378140,-13767.830521,1332.370696,-77835.302597
3851.380722,-1924.535449,-4145.153275,-82585.094684
3851.383304,-7698.141797,17764.942608,-68642.156621
3851.385886,-7550.100608,-16728.654289,-82738.313784
3851.388467,-10510.924376,8734.430116,-64045.583633
3851.391049,34197.514520,26351.331535,-61594.078039
3851.393631,-19837.519246,-12731.542202,-89173.515967
3851.396213,2220.617826,25315.043216,-66190.651027
3851.398795,16728.654289,21169.889941,-68182.499322
3851.401376,-15396.283594,-5477.523971,-74158.044206
3851.403958,14952.160028,22206.178260,-60674.763442
3851.406540,-9474.636058,592.164754,-68335.718422
3851.409122,-19097.313304,-4885.359217,-78448.178995
3851.411704,10214.842000,12583.501014,-73085.510509
3851.414285,8586.388927,9770.718434,-77222.426198
3851.416867,-4293.194464,888.247130,-84730.162079
3851.419449,-4293.194464,10658.965565,-69867.909418
3851.422031,-4145.153275,2220.617826,-74617.701505
3851.424612,444.123565,10510.924376,-75537.016103
3851.427194,13619.789333,11251.130318,-72625.853210
3851.429776,-10807.006753,8438.347739,-78141.740796
3851.432357,2220.617826,12435.459826,-75383.797003
3851.434939,-6069.688724,9178.553681,-73698.386908
3851.437521,6661.853478,3997.112087,-76303.111601
3851.440102,888.247130,10066.800811,-70174.347617
3851.442684,14211.954086,10214.842000,-74770.920605
3851.445266,-28868.031738,-14063.912898,-88100.982270
3851.447848,-14211.954086,6513.812290,-71859.757712
3851.450429,11251.130318,4441.235652,-73698.386908
3851.453011,-35233.802839,-22206.178260,-84576.942979
3851.455593,17024.736666,14952.160028,-62973.049936
3851.458174,-17764.942608,4293.194464,-72166.195912
3851.460756,-11695.253884,6661.853478,-69255.033019
3851.463338,8882.471304,22502.260637,-60521.544342
3851.465919,-16580.613101,-8142.265362,-74617.701505
3851.468501,592.164754,2368.659014,-69101.813920
3851.471083,-8290.306550,5181.441594,-68642.156621
3851.473664,-8290.306550,-7105.977043,-84117.285680
3851.476246,-592.164754,12731.542202,-72625.853210
3851.478828,-1480.411884,1924.535449,-75843.454302
3851.481410,-19097.313304,-5921.647536,-81512.560987
3851.483991,-15840.407159,-740.205942,-73238.729609
3851.486573,-5329.482782,-11251.130318,-74464.482406
3851.489155,-7846.182985,-740.205942,-72472.634111
3851.491736,-2960.823768,9622.677246,-67722.842023
3851.494318,1184.329507,11843.295072,-68029.280222
3851.496900,-28719.990550,2368.659014,-71400.100414
3851.499481,14211.954086,20725.766376,-60215.106143
3851.502063,-10066.800811,-19393.395680,-85189.819378
3851.504645,-4589.276840,14211.954086,-70634.004916
3851.507226,29016.072926,20281.642811,-76456.330700
3851.509808,-39082.873738,148.041188,-85955.914876
3851.512390,31236.690752,24722.878463,-69101.813920
3851.514972,-6661.853478,1776.494261,-81818.999186
3851.517553,-11103.089130,-7402.059420,-87641.324971
3851.520135,9622.677246,9918.759623,-69867.909418
3851.522717,-18061.024985,1628.453072,-74004.825107
3851.525298,1036.288319,9030.512492,-72625.853210
3851.527880,17764.942608,23242.466579,-62360.173537
3851.530461,-9622.677246,444.123565,-73391.948708
3851.533043,4737.318029,6069.688724,-73391.948708
3851.535625,8142.265362,13175.665768,-70787.224015
3851.538206,-8290.306550,3701.029710,-81972.218286
3851.540788,12435.459826,11547.212695,-72319.415011
3851.543370,-8882.471304,7105.977043,-75230.577904
3851.545951,6069.688724,9326.594869,-77835.302597
3851.548533,-3552.988522,12879.583391,-73391.948708
3851.551114,3404.947333,9178.553681,-79214.274493
3851.553696,6069.688724,-1776.494261,-81206.122788
3851.556278,-34345.555709,-4441.235652,-71859.757712
3851.558859,20133.601622,13915.871710,-62819.830836
3851.561441,-24426.796086,-17616.901420,-80440.027290
3851.564023,-19097.313304,-3552.988522,-75230.577904
3851.566604,17468.860231,6365.771101,-76609.549800
3851.569186,-30496.484810,-9326.594869,-85955.914876
3851.571767,14508.036463,11843.295072,-81512.560987
3851.574349,-7994.224174,-740.205942,-81665.780087
3851.576931,-23242.466579,-13767.830521,-88713.858668
3851.579512,9326.594869,6217.729913,-72472.634111
3851.582094,-16580.613101,-2664.741391,-74924.139704
3851.584675,-8142.265362,1332.370696,-74770.920605
3851.587257,6513.812290,13175.665768,-64352.021832
3851.589839,-10658.965565,-1924.535449,-74924.139704
3851.592420,-4885.359217,3997.112087,-77375.645298
3851.595002,-5181.441594,2516.700203,-70480.785816
3851.597584,-16284.530724,-14656.077652,-81206.122788
3851.600165,-1480.411884,2220.617826,-71553.319513
3851.602747,-8290.306550,6809.894666,-68182.499322
3851.605328,-2960.823768,6069.688724,-75077.358804
3851.607910,-19985.560434,1480.411884,-76303.111601
3851.610491,3849.070898,17024.736666,-68182.499322
3851.613072,-1480.411884,-18949.272115,-87641.324971
3851.615653,-5921.647536,15248.242405,-67416.403824
3851.618235,27239.578666,13619.789333,-75537.016103
3851.620816,-31236.690752,1776.494261,-82891.532884
3851.623397,24278.754898,24722.878463,-68795.375720
3851.625978,-1628.453072,2368.659014,-80746.465489
3851.628559,-10658.965565,-2516.700203,-80440.027290
3851.631141,3997.112087,10510.924376,-72625.853210
3851.633722,-14211.954086,-1628.453072,-74617.701505
3851.636303,5921.647536,11991.336260,-72779.072310
3851.638884,15248.242405,16728.654289,-69101.813920
3851.641466,-7846.182985,2368.659014,-74158.044206
3851.644047,-3701.029710,9030.512492,-71400.100414
3851.646628,9030.512492,10807.006753,-71093.662214
3851.649209,-4737.318029,7105.977043,-76303.111601
3851.651791,9474.636058,9474.636058,-71553.319513
3851.654372,-3997.112087,11695.253884,-75077.358804
3851.656953,-2072.576638,13471.748144,-75996.673402
3851.659534,7698.141797,11547.212695,-73085.510509
3851.662116,-10066.800811,10362.883188,-73238.729609
3851.664697,21910.095883,5921.647536,-74464.482406
3851.667278,-33309.267390,-6069.688724,-74158.044206
3851.669859,-7994.224174,10955.047942,-71246.881314
3851.672440,10362.883188,-148.041188,-77682.083497
3851.675022,-39378.956114,-18061.024985,-85189.819378
3851.677603,22946.384202,14359.995275,-69255.033019
3851.680184,-17172.777854,-5329.482782,-76456.330700
3851.682765,-10510.924376,11695.253884,-75690.235202
3851.685347,11103.089130,13027.624579,-67722.842023
3851.687928,-27239.578666,-12139.377449,-79061.055394
3851.690509,6957.935855,2516.700203,-69867.909418
3851.693090,-2072.576638,7994.224174,-62666.611736
3851.695672,-14656.077652,-4293.194464,-81359.341888
3851.698253,5921.647536,13471.748144,-65118.117330
3851.700834,-7550.100608,6661.853478,-66343.870127
3851.703415,-12287.418637,-7550.100608,-75690.235202
3851.705996,-10955.047942,-6809.894666,-76149.892501
3851.708578,-4885.359217,-5033.400406,-77375.645298
3851.711158,-3108.864956,-6365.771101,-83964.066581
3851.713738,-2812.782580,5477.523971,-73545.167808
3851.716319,-10214.842000,7550.100608,-73698.386908
3851.718899,-5477.523971,-7698.141797,-78294.959896
3851.721479,-18061.024985,7254.018232,-65884.212828
3851.724059,34197.514520,12287.418637,-69714.690318
3851.726640,-30792.567187,-7105.977043,-81359.341888
3851.729220,23982.672521,35381.844028,-64658.460031
3851.731800,-5921.647536,8438.347739,-77528.864398
3851.734381,-14804.118840,9918.759623,-68948.594820
3851.736961,27683.702231,19837.519246,-65730.993728
3851.739541,-17912.983796,-3997.112087,-75077.358804
3851.742122,-13767.830521,1924.535449,-77835.302597
3851.744702,17764.942608,6069.688724,-78141.740796
3851.747282,-7402.059420,6957.935855,-79520.712692
3851.749862,592.164754,7105.977043,-79980.369991
3851.752443,1036.288319,6661.853478,-72166.195912
3851.755023,-3849.070898,4737.318029,-78601.398095
3851.757603,7402.059420,10955.047942,-76303.111601
3851.760184,-1036.288319,6069.688724,-74311.263306
3851.762764,1184.329507,5477.523971,-75690.235202
3851.765344,13175.665768,17172.777854,-70634.004916
3851.767924,-14508.036463,7994.224174,-75996.673402
3851.770505,19393.395680,16580.613101,-74004.825107
3851.773085,-6365.771101,-4145.153275,-81818.999186
3851.775665,-16728.654289,8734.430116,-71859.757712
3851.778246,19837.519246,14656.077652,-63126.269035
3851.780826,-38638.750172,-23686.590144,-83197.971083
3851.783406,-8290.306550,592.164754,-72625.853210
3851.785987,15396.283594,5921.647536,-74924.139704
3851.788567,-29312.155303,-10955.047942,-85802.695776
3851.791147,21910.095883,13027.624579,-79673.931792
3851.793727,-22206.178260,-3997.112087,-81972.218286
3851.796308,-18209.066173,-15988.448347,-90092.830565
3851.798888,9178.553681,6661.853478,-71246.881314
3851.801468,-12287.418637,-4885.359217,-81818.999186
3851.804049,-5921.647536,2368.659014,-79827.150892
3851.806629,1332.370696,13027.624579,-64658.460031
3851.809209,-9918.759623,-9474.636058,-79827.150892
3851.811789,-14508.036463,-9326.594869,-77222.426198
3851.814369,-11843.295072,296.082377,-67569.622924
3851.816949,740.205942,-2812.782580,-77835.302597
3851.819529,-8882.471304,-5773.606348,-83044.751983
3851.822109,-1332.370696,11843.295072,-71400.100414
3851.824688,-15692.365970,-1480.411884,-80133.589091
3851.827268,8142.265362,3552.988522,-77375.645298
3851.829848,-26499.372724,-9770.718434,-82125.437386
3851.832428,35381.844028,19689.478057,-68029.280222
3851.835008,-9918.759623,-3849.070898,-81052.903688
3851.837587,-5625.565159,14804.118840,-70634.004916
3851.840167,14211.954086,26203.290347,-63739.145434
3851.842747,-12583.501014,-1480.411884,-75537.016103
3851.845327,21614.013506,15544.324782,-67416.403824
3851.847906,-9770.718434,6957.935855,-67109.965625
3851.850486,-10955.047942,-296.082377,-76303.111601
3851.853066,7105.977043,7402.059420,-73545.167808
3851.855646,740.205942,16728.654289,-70021.128517
3851.858226,6217.729913,-888.247130,-81818.999186
3851.860805,1776.494261,13619.789333,-70787.224015
3851.863385,0.000000,8586.388927,-74004.825107
3851.865965,-3108.864956,9178.553681,-74924.139704
3851.868545,1036.288319,9918.759623,-70634.004916
3851.871125,9326.594869,4885.359217,-78601.398095
3851.873704,-5921.647536,13619.789333,-73545.167808
3851.876284,8882.471304,14063.912898,-73851.606007
3851.878864,-11399.171507,6217.729913,-74158.044206
3851.881444,24574.837274,17912.983796,-65577.774629
3851.884023,-30200.402434,-21465.972318,-81665.780087
3851.886603,2664.741391,14804.118840,-65884.212828
3851.889183,-2220.617826,12139.377449,-66956.746525
3851.891763,-30792.567187,-20281.642811,-85036.600278
3851.894343,12139.377449,14804.118840,-63279.488135
3851.896922,444.123565,8734.430116,-65424.555529
3851.899502,-25463.084405,7254.018232,-67109.965625
3851.902082,2960.823768,23094.425390,-55618.533155
3851.904662,-11547.212695,-7698.141797,-73085.510509
3851.907241,-12287.418637,-4885.359217,-76456.330700
3851.909821,11991.336260,18357.107362,-64045.583633
3851.912401,-11399.171507,-7105.977043,-81818.999186
3851.914981,-13027.624579,740.205942,-74770.920605
3851.917560,5773.606348,6661.853478,-68642.156621
3851.920138,-25759.166782,-11251.130318,-83044.751983
3851.922717,592.164754,-4441.235652,-77069.207099
3851.925296,1776.494261,1628.453072,-74311.263306
3851.927875,-17320.819043,-2516.700203,-75230.577904
3851.930453,5033.400406,14656.077652,-66190.651027
3851.933032,-23538.548956,-5477.523971,-73085.510509
3851.935611,5329.482782,20429.683999,-62053.735338
3851.938190,16580.613101,-4737.318029,-75996.673402
3851.940768,-25167.002028,6217.729913,-70634.004916
3851.943347,39526.997303,30200.402434,-64505.240932
3851.945926,-43820.191766,-2664.741391,-86722.010374
3851.948504,21317.931130,20873.807564,-77835.302597
3851.951083,15248.242405,12731.542202,-78601.398095
3851.953662,-20873.807564,-9918.759623,-86875.229473
3851.956241,8438.347739,8882.471304,-74004.825107
3851.958819,-18357.107362,-4885.359217,-74924.139704
3851.961398,1184.329507,11991.336260,-73238.729609
3851.963977,17616.901420,19837.519246,-64811.679131
3851.966556,-4441.235652,7994.224174,-67569.622924
3851.969134,-2664.741391,5181.441594,-73085.510509
3851.971713,1628.453072,13027.624579,-68335.718422
3851.974292,-8290.306550,3552.988522,-77528.864398
3851.976871,16136.489536,11103.089130,-74004.825107
3851.979449,-2220.617826,14656.077652,-75996.673402
3851.982028,1480.411884,8142.265362,-78601.398095
3851.984607,5181.441594,21762.054695,-69101.813920
3851.987186,-2220.617826,-3997.112087,-80899.684589
3851.989764,-19837.519246,2516.700203,-69561.471218
3851.992343,20281.642811,14359.995275,-60827.982541
3851.994922,-43672.150578,-30200.402434,-86875.229473
3851.997501,12287.418637,14359.995275,-62819.830836
3852.000079,12435.459826,13471.748144,-73698.386908
3852.002658,-15840.407159,-13175.665768,-88254.201370
3852.005237,10066.800811,11695.253884,-77682.083497
3852.007816,-7105.977043,1332.370696,-81512.560987
3852.010394,-29016.072926,-17764.942608,-88254.201370
3852.012973,2664.741391,7994.224174,-70174.347617
3852.015552,-1036.288319,3404.947333,-72932.291410
3852.018131,-13915.871710,-1628.453072,-79214.274493
3852.020709,148.041188,15396.283594,-62053.735338
3852.023287,-8882.471304,-2368.659014,-71400.100414
3852.025865,-19245.354492,-2072.576638,-70940.443115
3852.028443,1332.370696,-5329.482782,-68948.594820
3852.031021,-6809.894666,-3552.988522,-73545.167808
3852.033599,-5773.606348,5181.441594,-70174.347617
3852.036177,2368.659014,6957.935855,-73085.510509
3852.038755,-30496.484810,-8438.347739,-80899.684589
3852.041333,10066.800811,25463.084405,-62973.049936
3852.043911,7550.100608,-15692.365970,-85343.038477
3852.046489,-18061.024985,8882.471304,-71246.881314
3852.049067,34049.473332,25611.125593,-67263.184724
3852.051645,-37602.461854,-4885.359217,-87947.763170
3852.054223,24426.796086,22502.260637,-75383.797003
3852.056801,2812.782580,7698.141797,-80286.808190
3852.059379,-19837.519246,-7550.100608,-85802.695776
3852.061957,17320.819043,8586.388927,-72779.072310
3852.064535,-14656.077652,-5773.606348,-77528.864398
3852.067113,-1628.453072,8882.471304,-75077.358804
3852.069691,8882.471304,14656.077652,-71246.881314
3852.072269,-6661.853478,1924.535449,-80286.808190
3852.074847,13915.871710,9178.553681,-71400.100414
3852.077425,3256.906145,8290.306550,-70327.566716
3852.080003,-7994.224174,3997.112087,-78141.740796
3852.082581,17912.983796,15248.242405,-71093.662214
3852.085159,-3849.070898,16580.613101,-71859.757712
3852.087737,2368.659014,10807.006753,-72932.291410
3852.090315,-4145.153275,21317.931130,-64352.021832
3852.092893,7550.100608,3552.988522,-76609.549800
3852.095471,-20873.807564,-9622.677246,-77528.864398
3852.098049,16284.530724,15692.365970,-62819.830836
3852.100628,-32421.020260,-25611.125593,-89786.392366
3852.103206,-15840.407159,1332.370696,-72319.415011
3852.105784,11103.089130,3701.029710,-79673.931792
3852.108362,-16284.530724,-13915.871710,-88254.201370
3852.110940,14063.912898,9770.718434,-75996.673402
3852.113518,3997.112087,11251.130318,-72779.072310
3852.116096,-23982.672521,-17616.901420,-83351.190182
3852.118674,-4293.194464,592.164754,-69867.909418
3852.121252,2368.659014,9622.677246,-66037.431928
3852.123829,-8142.265362,-1332.370696,-77375.645298
3852.126405,-2220.617826,11399.171507,-65884.212828
3852.128982,-6809.894666,-148.041188,-68335.718422
3852.131559,-25315.043216,-7698.141797,-73085.510509
3852.134136,10362.883188,1332.370696,-68795.375720
3852.136712,-10510.924376,-5625.565159,-78601.398095
3852.139289,-6661.853478,888.247130,-77222.426198
3852.141866,1628.453072,15692.365970,-69408.252119
3852.144443,-36714.214723,-11991.336260,-82431.875585
3852.147019,12879.583391,22354.219448,-66956.746525
3852.149596,34493.596897,15840.407159,-65884.212828
3852.152173,-41599.573940,-7994.224174,-81818.999186
3852.154750,39378.956114,38194.626607,-61287.639840
3852.157326,-13915.871710,5329.482782,-79673.931792
3852.159903,-13323.706956,8290.306550,-73238.729609
3852.162480,28719.990550,23834.631332,-63126.269035
3852.165057,-12583.501014,-6957.935855,-77069.207099
3852.167634,-1036.288319,3404.947333,-74924.139704
3852.170210,-10362.883188,6957.935855,-70480.785816
3852.172787,-3108.864956,6069.688724,-78601.398095
3852.175364,15988.448347,15840.407159,-70634.004916
3852.177941,-6809.894666,4885.359217,-74464.482406
3852.180517,4293.194464,5477.523971,-76762.768900
3852.183094,-1480.411884,10807.006753,-73085.510509
3852.185671,-1924.535449,8586.388927,-76149.892501
3852.188248,16432.571912,13471.748144,-78448.178995
3852.190824,-5773.606348,11103.089130,-71706.538613
3852.193401,7105.977043,14656.077652,-74158.044206
3852.195978,-4885.359217,-6365.771101,-80440.027290
3852.198555,-6661.853478,17320.819043,-65577.774629
3852.201132,13027.624579,-7846.182985,-78754.617194
3852.203708,-43228.027013,-17764.942608,-76762.768900
3852.206285,19985.560434,11695.253884,-63279.488135
3852.208862,-26795.455100,-13915.871710,-77069.207099
3852.211439,-4737.318029,5329.482782,-68335.718422
3852.214015,21021.848753,17172.777854,-66956.746525
3852.216592,-30792.567187,-2368.659014,-75843.454302
3852.219169,0.000000,12139.377449,-64352.021832
3852.221746,-5773.606348,-5921.647536,-73391.948708
3852.224322,-12879.583391,-7254.018232,-81512.560987
3852.226898,2220.617826,7402.059420,-77528.864398
3852.229474,1036.288319,6513.812290,-72472.634111
3852.232050,-18209.066173,-888.247130,-69101.813920
3852.234625,-14359.995275,-7698.141797,-73545.167808
3852.237201,3849.070898,2516.700203,-66650.308326
3852.239777,-15988.448347,-8290.306550,-81052.903688
3852.242352,1480.411884,0.000000,-75383.797003
3852.244928,-11251.130318,12583.501014,-74464.482406
3852.247504,-21910.095883,-12583.501014,-85189.819378
3852.250079,5329.482782,21317.931130,-61440.858940
3852.252655,19689.478057,-3404.947333,-81052.903688
3852.255231,-19245.354492,148.041188,-78754.617194
3852.257807,32717.102636,38194.626607,-60674.763442
3852.260382,-37010.297100,-4441.235652,-87181.667672
3852.262958,11695.253884,18061.024985,-74311.263306
3852.265534,19689.478057,28423.908173,-60061.887043
3852.268109,-5773.606348,-1776.494261,-71553.319513
3852.270685,-5329.482782,3404.947333,-73391.948708
3852.273261,-2516.700203,9918.759623,-70480.785816
3852.275836,-5921.647536,3108.864956,-77222.426198
3852.278412,6957.935855,16728.654289,-69255.033019
3852.280988,5773.606348,7698.141797,-70021.128517
3852.283564,-8734.430116,8142.265362,-73545.167808
3852.286139,2220.617826,16432.571912,-69561.471218
3852.288715,3552.988522,5033.400406,-77069.207099
3852.291291,7846.182985,17468.860231,-73391.948708
3852.293866,6513.812290,11251.130318,-72166.195912
3852.296442,3552.988522,16136.489536,-72625.853210
3852.299018,-6365.771101,-4589.276840,-82585.094684
3852.301593,-16284.530724,-4441.235652,-73238.729609
3852.304169,18061.024985,5921.647536,-70634.004916
3852.306745,-39378.956114,-27387.619854,-87641.324971
3852.309320,-444.123565,5773.606348,-67416.403824
3852.311896,3701.029710,1480.411884,-75537.016103
3852.314472,-16876.695478,-11251.130318,-82278.656485
3852.317048,19245.354492,19837.519246,-72012.976812
3852.319623,-21465.972318,-7550.100608,-83351.190182
3852.322199,-10066.800811,-5773.606348,-79980.369991
3852.324775,-1480.411884,2960.823768,-69255.033019
3852.327350,-3404.947333,-8142.265362,-81972.218286
3852.329896,-9770.718434,2368.659014,-81359.341888
3852.332442,6217.729913,10066.800811,-71553.319513
3852.334987,-20725.766376,-7105.977043,-76915.987999
3852.337533,-26647.413912,-11251.130318,-76303.111601
3852.340079,11843.295072,1480.411884,-67416.403824
3852.342624,-9030.512492,-4737.318029,-76149.892501
3852.345170,-5921.647536,-444.123565,-77375.645298
3852.347716,-8882.471304,9030.512492,-72625.853210
3852.350261,-10510.924376,-6809.894666,-80593.246390
3852.352807,-15544.324782,2220.617826,-72319.415011
3852.355353,36714.214723,21021.848753,-66956.746525
3852.357898,-37158.338288,-7105.977043,-84730.162079
3852.360444,25018.960840,33457.308578,-61287.639840
3852.362990,-6513.812290,13471.748144,-72932.291410
3852.365535,-9622.677246,3108.864956,-71553.319513
3852.368081,24130.713709,26943.496289,-59295.791545
3852.370626,-11547.212695,1480.411884,-71553.319513
3852.373172,-17172.777854,-3256.906145,-81052.903688
3852.375718,16876.695478,7698.141797,-74311.263306
3852.378263,-1776.494261,3552.988522,-80440.027290
3852.380809,6513.812290,2368.659014,-81206.122788
3852.383355,-5773.606348,11399.171507,-70021.128517
3852.385900,-3404.947333,1776.494261,-79061.055394
3852.388446,592.164754,8438.347739,-77069.207099
3852.390992,8438.347739,11991.336260,-74004.825107
3852.393537,1036.288319,10362.883188,-77835.302597
3852.396083,7402.059420,18209.066173,-70634.004916
3852.398629,-10066.800811,13619.789333,-72166.195912
3852.401174,16876.695478,7254.018232,-75077.358804
3852.403720,-29460.196492,-16580.613101,-81359.341888
3852.406266,11843.295072,8882.471304,-67416.403824
3852.408811,-16432.571912,-12879.583391,-83197.971083
3852.411357,-36270.091158,-16284.530724,-81818.999186
3852.413903,20873.807564,12879.583391,-66803.527426
3852.416448,-5329.482782,6069.688724,-69561.471218
3852.418994,-14952.160028,5921.647536,-73698.386908
3852.421540,1184.329507,16728.654289,-62360.173537
3852.424085,-25018.960840,-12583.501014,-76609.549800
3852.426631,-2664.741391,-9622.677246,-75383.797003
3852.429176,-3256.906145,18949.272115,-62206.954438
3852.431727,-1480.411884,-1628.453072,-80286.808190
3852.434277,-11103.089130,4145.153275,-72472.634111
3852.436828,-13027.624579,3701.029710,-68948.594820
3852.439378,-11843.295072,-17468.860231,-82738.313784
3852.441929,-4737.318029,-1184.329507,-75077.358804
3852.444479,-148.041188,-2812.782580,-77069.207099
3852.447029,-7105.977043,5033.400406,-76456.330700
3852.449580,-21910.095883,-3552.988522,-74311.263306
3852.452130,8882.471304,16728.654289,-60674.763442
3852.454681,15692.365970,-5921.647536,-79980.369991
3852.457231,-12731.542202,5477.523971,-75077.358804
3852.459782,32421.020260,29164.114115,-66956.746525
3852.462332,-42487.821071,-1776.494261,-86415.572174
3852.464882,23982.672521,14508.036463,-76456.330700
3852.467433,7698.141797,11547.212695,-79367.493593
3852.469983,-9918.759623,-9326.594869,-88713.858668
3852.472534,7698.141797,15100.201217,-71400.100414
3852.475084,-12139.377449,-592.164754,-76456.330700
3852.477634,3552.988522,4145.153275,-74311.263306
3852.480185,7994.224174,17172.777854,-66343.870127
3852.482735,3108.864956,1924.535449,-69255.033019
3852.485286,-444.123565,7105.977043,-74311.263306
3852.487836,-3701.029710,17172.777854,-68795.375720
3852.490387,7846.182985,6217.729913,-75996.673402
3852.492937,5921.647536,13471.748144,-74158.044206
3852.495487,4737.318029,14359.995275,-74617.701505
3852.498038,-5329.482782,14063.912898,-74617.701505
3852.500588,8734.430116,6661.853478,-77835.302597
3852.503139,-24574.837274,-17172.777854,-79214.274493
3852.505689,23982.672521,11843.295072,-62053.735338
3852.508240,-34049.473332,-22502.260637,-82585.094684
3852.510790,-14063.912898,-3256.906145,-74770.920605
3852.513340,9326.594869,10362.883188,-76149.892501
3852.515891,-20281.642811,-15248.242405,-88867.077768
3852.518441,19541.436869,14211.954086,-74924.139704
3852.520992,2368.659014,13767.830521,-68642.156621
3852.523542,-21169.889941,-13915.871710,-78907.836294
3852.526092,-8290.306550,-888.247130,-68335.718422
3852.528643,296.082377,16284.530724,-60827.982541
3852.531193,-1480.411884,-2516.700203,-77375.645298
3852.533727,-7550.100608,10807.006753,-65884.212828
3852.536253,-16432.571912,-1184.329507,-70787.224015
3852.538778,-12287.418637,-9770.718434,-78448.178995
3852.541304,1480.411884,-592.164754,-74311.263306
3852.543829,-7550.100608,-7698.141797,-77222.426198
3852.546355,-10955.047942,6661.853478,-71093.662214
3852.548880,-27387.619854,-2960.823768,-72319.415011
3852.551406,7550.100608,18505.148550,-66190.651027
3852.553931,1628.453072,-10362.883188,-83351.190182
3852.556456,-16580.613101,1776.494261,-77375.645298
3852.558982,31384.731941,34197.514520,-64352.021832
3852.561507,-33901.432144,-2220.617826,-84883.381178
3852.564033,11695.253884,11251.130318,-75690.235202
3852.566558,15248.242405,15396.283594,-77528.864398
3852.569084,-3108.864956,-9474.636058,-86568.791274
3852.571609,-4145.153275,10362.883188,-74617.701505
3852.574135,-12287.418637,4441.235652,-74004.825107
3852.576660,3849.070898,4145.153275,-75230.577904
3852.579186,4737.318029,13767.830521,-69867.909418
3852.581711,8882.471304,6513.812290,-74158.044206
3852.584237,-5181.441594,9178.553681,-71246.881314
3852.586762,-4293.194464,12879.583391,-70327.566716
3852.589287,6069.688724,6365.771101,-75077.358804
3852.591813,-1036.288319,17024.736666,-72319.415011
3852.594338,12139.377449,17024.736666,-71859.757712
3852.596864,-14508.036463,8882.471304,-72319.415011
3852.599389,19393.395680,15100.201217,-67722.842023
3852.601915,-26351.331535,-23834.631332,-83964.066581
3852.604440,-9030.512492,12287.418637,-66956.746525
3852.606966,2516.700203,-4293.194464,-81052.903688
3852.609491,-33309.267390,-16728.654289,-89786.392366
3852.612017,12583.501014,14952.160028,-73851.606007
3852.614542,-14508.036463,-6513.812290,-79980.369991
3852.617068,-5921.647536,9030.512492,-74617.701505
3852.619593,10658.965565,9326.594869,-72625.853210
3852.622118,-24870.919651,-12139.377449,-78907.836294
3852.624644,-13027.624579,-296.082377,-69714.690318
3852.627169,6217.729913,13471.748144,-59295.791545
3852.629695,-7994.224174,-1332.370696,-77988.521696
3852.632220,-19541.436869,1480.411884,-75537.016103
3852.634755,3701.029710,-1776.494261,-70787.224015
3852.637289,-17764.942608,-7846.182985,-79980.369991
3852.639823,3552.988522,1036.288319,-74924.139704
3852.642357,-5625.565159,-3256.906145,-74770.920605
3852.644892,-16728.654289,888.247130,-78294.959896
3852.647426,14063.912898,8142.265362,-73698.386908
3852.649960,-29312.155303,-11547.212695,-82278.656485
3852.652494,38490.708984,22798.343014,-71400.100414
3852.655029,-888.247130,-2220.617826,-81206.122788
3852.657563,-20281.642811,15396.283594,-70787.224015
3852.660097,24278.754898,22798.343014,-64505.240932
3852.662632,-15396.283594,-3552.988522,-74464.482406
3852.665166,19097.313304,15988.448347,-68795.375720
3852.667700,22058.137072,15396.283594,-70021.128517
3852.670234,-14804.118840,-444.123565,-74770.920605
3852.672769,-5033.400406,3849.070898,-76609.549800
3852.675303,9030.512492,11103.089130,-71246.881314
3852.677837,-5181.441594,-4293.194464,-84423.723880
3852.680372,6809.894666,12287.418637,-76149.892501
3852.682906,-1184.329507,7550.100608,-79214.274493
3852.685440,-4441.235652,3404.947333,-82278.656485
3852.687974,13619.789333,16876.695478,-70021.128517
3852.690509,-2516.700203,10214.842000,-76303.111601
3852.693043,6513.812290,22650.301825,-74464.482406
3852.695577,2664.741391,2812.782580,-81665.780087
3852.698111,-25463.084405,-8438.347739,-77069.207099
3852.700646,26499.372724,8290.306550,-63126.269035
3852.703180,-20429.683999,-12139.377449,-80133.589091
3852.705714,-29164.114115,-12731.542202,-83810.847481
3852.708249,17024.736666,13175.665768,-74770.920605
3852.710783,-21762.054695,-10362.883188,-90092.830565
3852.713317,16432.571912,10955.047942,-79980.369991
3852.715851,-10807.006753,3404.947333,-73698.386908
3852.718386,-25167.002028,-13323.706956,-81818.999186
3852.720920,740.205942,3404.947333,-66650.308326
3852.723454,-2664.741391,11695.253884,-63739.145434
3852.725989,-3552.988522,-444.123565,-75077.358804
3852.728523,-7698.141797,11399.171507,-62206.954438
3852.731057,-19541.436869,-6957.935855,-71553.319513
3852.733591,-7994.224174,-740.205942,-70021.128517
3852.736133,0.000000,3404.947333,-70634.004916
3852.738676,-5477.523971,-9622.677246,-80593.246390
3852.741218,-14211.954086,444.123565,-77528.864398
3852.743760,2960.823768,-4737.318029,-77988.521696
3852.746302,-26795.455100,-6217.729913,-78601.398095
3852.748844,39378.956114,26647.413912,-66190.651027
3852.751386,-28127.825796,-8882.471304,-87334.886772
3852.753928,20577.725188,30348.443622,-66190.651027
3852.756470,-2664.741391,15544.324782,-71400.100414
3852.759012,-17172.777854,-2220.617826,-72932.291410
3852.761554,18061.024985,23390.507767,-65730.993728
3852.764096,1776.494261,1776.494261,-72472.634111
3852.766639,-8290.306550,-148.041188,-79520.712692
3852.769181,3108.864956,16432.571912,-66037.431928
3852.771723,-2220.617826,-1628.453072,-75077.358804
3852.774265,2664.741391,8290.306550,-83044.751983
3852.776807,4589.276840,12435.459826,-72625.853210
3852.779349,4293.194464,1332.370696,-81512.560987
3852.781891,-5033.400406,6957.935855,-82278.656485
3852.784433,11843.295072,16580.613101,-71093.662214
3852.786975,-2072.576638,6513.812290,-77682.083497
3852.789517,7402.059420,23094.425390,-72012.976812
3852.792059,5329.482782,592.164754,-82125.437386
3852.794602,-29460.196492,-5181.441594,-75996.673402
3852.797144,25018.960840,9030.512492,-62819.830836
3852.799686,-45596.686027,-30052.361245,-84423.723880
3852.802228,5181.441594,5329.482782,-68642.156621
3852.804770,6217.729913,-740.205942,-75383.797003
3852.807312,-29460.196492,-10807.006753,-84730.162079
3852.809854,23834.631332,17024.736666,-73238.729609
3852.812396,-4145.153275,1776.494261,-75383.797003
3852.814938,-30052.361245,-13619.789333,-82278.656485
3852.817480,7698.141797,2516.700203,-68948.594820
3852.820022,-4293.194464,6365.771101,-68642.156621
3852.822565,-6957.935855,148.041188,-78141.740796
3852.825107,-4145.153275,6809.894666,-64964.898230
3852.827649,-21910.095883,-9326.594869,-74770.920605
3852.830191,-1184.329507,-888.247130,-71706.538613
3852.832733,0.000000,5181.441594,-69255.033019
3852.835275,-12879.583391,-12583.501014,-81052.903688
3852.837823,-6069.688724,8142.265362,-69561.471218
3852.840371,-7994.224174,-9770.718434,-79214.274493
3852.842919,-19541.436869,1332.370696,-75383.797003
3852.845467,39526.997303,27091.537477,-64505.240932
3852.848015,-5921.647536,-2812.782580,-83504.409282
3852.850563,-9770.718434,11103.089130,-71400.100414
3852.853111,16432.571912,29460.196492,-58836.134246
3852.855659,-9622.677246,-7402.059420,-73698.386908
3852.858207,15248.242405,15100.201217,-64811.679131
3852.860755,1628.453072,18061.024985,-60674.763442
3852.863303,-13915.871710,-4145.153275,-82278.656485
3852.865851,3552.988522,14063.912898,-70787.224015
3852.868399,2664.741391,-1332.370696,-80746.465489
3852.870947,-1332.370696,-4737.318029,-83504.409282
3852.873495,3256.906145,15396.283594,-70787.224015
3852.876043,5033.400406,2516.700203,-82125.437386
3852.878592,-4441.235652,12435.459826,-77375.645298
3852.881140,6365.771101,14508.036463,-70480.785816
3852.883688,9474.636058,9474.636058,-75077.358804
3852.886236,-14656.077652,13175.665768,-69714.690318
3852.888784,25315.043216,20133.601622,-63892.364533
3852.891332,-29164.114115,-27239.578666,-87181.667672
3852.893880,-4145.153275,10510.924376,-67876.061123
3852.896428,4293.194464,-5625.565159,-79214.274493
3852.898976,-42487.821071,-14952.160028,-87334.886772
3852.901524,21762.054695,15100.201217,-71706.538613
3852.904072,-17912.983796,-4293.194464,-81359.341888
3852.906620,740.205942,8438.347739,-78294.959896
3852.909168,8586.388927,8142.265362,-70327.566716
3852.911716,-31384.731941,-10658.965565,-77988.521696
3852.914264,1332.370696,1480.411884,-67876.061123
3852.916812,-1480.411884,8882.471304,-65271.336430
3852.919360,-16876.695478,-5181.441594,-81665.780087
3852.921908,-9326.594869,-2368.659014,-78141.740796
3852.924456,-4441.235652,1480.411884,-74158.044206
3852.927004,-15544.324782,-11547.212695,-85496.257577
3852.929552,444.123565,-2960.823768,-72625.853210
3852.932100,-3997.112087,1480.411884,-74617.701505
3852.934648,-27683.702231,-11399.171507,-81972.218286
3852.937196,10807.006753,25611.125593,-64045.583633
3852.939749,-10658.965565,-17912.983796,-90705.706963
3852.942303,7846.182985,19985.560434,-68029.280222
3852.944856,27387.619854,22058.137072,-71859.757712
3852.947409,-25759.166782,-8142.265362,-85496.257577
3852.949963,16580.613101,25907.207970,-65884.212828
3852.952516,-7254.018232,-296.082377,-80899.684589
3852.955069,-12139.377449,-13767.830521,-89173.515967
3852.957623,-3552.988522,14063.912898,-70480.785816
3852.960176,6069.688724,6661.853478,-73238.729609
3852.962729,-8290.306550,2664.741391,-76609.549800
3852.965282,5329.482782,18505.148550,-64811.679131
3852.967836,7698.141797,5181.441594,-73545.167808
3852.970389,-6957.935855,10362.883188,-73391.948708
3852.972942,13175.665768,18505.148550,-66343.870127
3852.975496,-7698.141797,9326.594869,-73851.606007
3852.978049,2812.782580,12287.418637,-75077.358804
3852.980602,15988.448347,20133.601622,-74464.482406
3852.983155,-11547.212695,-1628.453072,-85802.695776
3852.985709,-9918.759623,12139.377449,-69714.690318
3852.988262,8882.471304,-4885.359217,-72319.415011
3852.990815,-40119.162056,-27535.661042,-85189.819378
3852.993369,-3552.988522,1036.288319,-73545.167808
3852.995922,7698.141797,3997.112087,-79214.274493
3852.998475,-24278.754898,-12583.501014,-87947.763170
3853.001028,18653.189738,12583.501014,-75996.673402
3853.003582,-23390.507767,-1628.453072,-78754.617194
3853.006135,-4885.359217,-7698.141797,-81972.218286
3853.008688,2960.823768,2368.659014,-72319.415011
3853.011242,-13767.830521,-4145.153275,-78907.836294
3853.013795,-3997.112087,3108.864956,-72472.634111
3853.016348,-12139.377449,-296.082377,-68029.280222
3853.018901,-14952.160028,-9326.594869,-77222.426198
3853.021459,0.000000,8290.306550,-67569.622924
3853.024017,-13471.748144,0.000000,-73391.948708
3853.026575,-2664.741391,-4737.318029,-76149.892501
3853.029132,-25167.002028,-1480.411884,-70480.785816
3853.031690,6661.853478,13471.748144,-70480.785816
3853.034248,-15248.242405,-12583.501014,-88713.858668
3853.036805,17320.819043,31236.690752,-66190.651027
3853.039363,23834.631332,6513.812290,-82125.437386
3853.041921,-25907.207970,1628.453072,-78141.740796
3853.044478,16876.695478,19541.436869,-64658.460031
3853.047036,-7846.182985,-6365.771101,-80899.684589
3853.049594,3404.947333,6513.812290,-76762.768900
3853.052152,19541.436869,18949.272115,-64811.679131
3853.054709,-21910.095883,-3108.864956,-76915.987999
3853.057267,-3701.029710,6661.853478,-72166.195912
3853.059825,9918.759623,7994.224174,-74158.044206
3853.062382,-4293.194464,1036.288319,-75537.016103
3853.064940,-4885.359217,7698.141797,-74617.701505
3853.067498,13027.624579,18357.107362,-68642.156621
3853.070055,-6069.688724,11843.295072,-75230.577904
3853.072613,9178.553681,10066.800811,-73698.386908
3853.075171,2516.700203,21762.054695,-67416.403824
3853.077728,7550.100608,9622.677246,-74311.263306
3853.080286,-18801.230927,-14063.912898,-77069.207099
3853.082844,9770.718434,8438.347739,-64198.802732
3853.085402,-29164.114115,-27831.743419,-85189.819378
3853.087959,-15692.365970,-2960.823768,-74004.825107
3853.090517,14952.160028,6365.771101,-78448.178995
3853.093075,-18949.272115,-14063.912898,-87794.544071
3853.095632,8290.306550,14656.077652,-77682.083497
3853.098190,-13767.830521,-1776.494261,-79520.712692
3853.100748,-14804.118840,-7402.059420,-79980.369991
3853.103305,-12731.542202,1628.453072,-66190.651027
3853.105863,2664.741391,10658.965565,-60981.201641
3853.108421,-10362.883188,-1776.494261,-74770.920605
3853.110979,-6069.688724,3404.947333,-70021.128517
3853.113536,-3552.988522,-2812.782580,-74158.044206
3853.116094,-13323.706956,-3256.906145,-79367.493593
3853.118652,2516.700203,-7105.977043,-75537.016103
3853.121209,-9770.718434,-3256.906145,-76456.330700
3853.123770,-21465.972318,-11695.253884,-79214.274493
3853.126331,3849.070898,17764.942608,-64505.240932
3853.128891,7105.977043,-6957.935855,-85036.600278
3853.131452,-1332.370696,15692.365970,-71859.757712
3853.134013,29904.320057,30644.525999,-69101.813920
3853.136573,-32421.020260,-4441.235652,-89939.611465
3853.139134,-1184.329507,6069.688724,-74004.825107
3853.141695,14508.036463,17468.860231,-71400.100414
3853.144255,-4885.359217,-7402.059420,-83197.971083
3853.146816,1036.288319,7402.059420,-73698.386908
3853.149377,-3256.906145,15544.324782,-67569.622924
3853.151937,-6957.935855,-1184.329507,-77375.645298
3853.154498,148.041188,7994.224174,-70787.224015
3853.157059,7402.059420,12731.542202,-68948.594820
3853.159619,3701.029710,6809.894666,-75230.577904
3853.162180,1628.453072,20725.766376,-67722.842023
3853.164741,592.164754,11547.212695,-73085.510509
3853.167301,1184.329507,11547.212695,-74924.139704
3853.169862,2220.617826,19689.478057,-70174.347617
3853.172423,18505.148550,15100.201217,-70634.004916
3853.174983,-23834.631332,-18949.272115,-82891.532884
3853.177544,-27387.619854,-3997.112087,-71400.100414
3853.180105,13027.624579,1184.329507,-70480.785816
3853.182665,-35974.008781,-13175.665768,-84117.285680
3853.185226,18505.148550,11991.336260,-69867.909418
3853.187787,-10214.842000,8586.388927,-69561.471218
3853.190347,-16432.571912,1184.329507,-75690.235202
3853.192908,7254.018232,11399.171507,-67722.842023
3853.195469,-18653.189738,-8734.430116,-80440.027290
3853.198029,0.000000,-8734.430116,-78754.617194
3853.200590,-8290.306550,15100.201217,-64505.240932
3853.203151,-12139.377449,-6069.688724,-78141.740796
3853.205711,-9178.553681,-1628.453072,-70940.443115
3853.208272,-4441.235652,296.082377,-75230.577904
3853.210833,-7402.059420,-1924.535449,-77682.083497
3853.213393,2220.617826,2072.576638,-72779.072310
3853.215954,-21762.054695,-6513.812290,-78601.398095
3853.218515,12583.501014,-8734.430116,-80746.465489
3853.221075,-32124.937883,-3108.864956,-78141.740796
3853.223636,42931.944636,28868.031738,-68642.156621
3853.226199,-7994.224174,444.123565,-83964.066581
3853.228763,-5921.647536,22058.137072,-68182.499322
3853.231326,17468.860231,17616.901420,-62053.735338
3853.233889,-23538.548956,-5329.482782,-70480.785816
3853.236453,21021.848753,15544.324782,-67722.842023
3853.239016,-444.123565,14804.118840,-66803.527426
3853.241579,-14211.954086,-888.247130,-81206.122788
3853.244143,6217.729913,9474.636058,-69408.252119
3853.246706,1776.494261,14063.912898,-67263.184724
3853.249269,-1480.411884,-1924.535449,-84423.723880
3853.251833,9622.677246,10807.006753,-78294.959896
3853.254396,3552.988522,19837.519246,-75230.577904
3853.256960,-5329.482782,5033.400406,-81206.122788
3853.259523,3701.029710,12139.377449,-68948.594820
3853.262086,6069.688724,18061.024985,-70787.224015
3853.264650,7550.100608,3256.906145,-77069.207099
3853.267213,-22946.384202,5921.647536,-69408.252119
3853.269776,19245.354492,-740.205942,-68029.280222
3853.272340,-45300.603650,-27239.578666,-78294.959896
3853.274903,6217.729913,3849.070898,-65118.117330
3853.277467,1332.370696,-592.164754,-75230.577904
3853.280030,-19837.519246,-5033.400406,-80746.465489
3853.282593,17764.942608,16876.695478,-72319.415011
3853.285157,-9326.594869,2072.576638,-74464.482406
3853.287720,-16284.530724,-6661.853478,-78754.617194
3853.290283,7550.100608,-296.082377,-70787.224015
3853.292847,-9770.718434,4737.318029,-71093.662214
3853.295410,-6365.771101,-1776.494261,-79980.369991
3853.297973,-7105.977043,-2220.617826,-74464.482406
3853.300537,-13027.624579,-4293.194464,-76762.768900
3853.303100,1924.535449,-148.041188,-74617.701505
3853.305664,-13471.748144,-6069.688724,-75690.235202
3853.308227,-5921.647536,740.205942,-74158.044206
3853.310790,-6661.853478,-11547.212695,-72012.976812
3853.313354,-14211.954086,12731.542202,-62666.611736
3853.315917,31532.773129,9918.759623,-74924.139704
3853.318480,-27831.743419,10066.800811,-75537.016103
3853.321044,16580.613101,30052.361245,-65884.212828
3853.323607,9622.677246,13323.706956,-70787.224015
3853.326171,-29904.320057,-2072.576638,-71706.538613
3853.328707,19245.354492,16728.654289,-68642.156621
3853.331243,-5625.565159,6957.935855,-72625.853210
3853.333780,-6069.688724,888.247130,-81818.999186
3853.336316,7402.059420,15692.365970,-66803.527426
3853.338853,-8734.430116,3849.070898,-72625.853210
3853.341389,5773.606348,-888.247130,-80440.027290
3853.343926,9030.512492,14508.036463,-68642.156621
3853.346462,0.000000,11251.130318,-78754.617194
