#time,accel_x,accel_y,accel_z
488.447559,296.082377,1776.494261,-77682.083497
488.450123,-2664.741391,1628.453072,-75996.673402
488.452687,16284.530724,-5921.647536,-79061.055394
488.455251,2516.700203,-2664.741391,-71553.319513
488.457815,-4441.235652,-4885.359217,-75077.358804
488.460379,-3849.070898,3256.906145,-73545.167808
488.462943,1924.535449,3849.070898,-74770.920605
488.465507,296.082377,2516.700203,-77528.864398
488.468071,2960.823768,6069.688724,-77069.207099
488.470635,1332.370696,592.164754,-76762.768900
488.473199,-6661.853478,-3997.112087,-76303.111601
488.475763,2368.659014,-1776.494261,-75230.577904
488.478363,-6513.812290,11991.336260,-75077.358804
488.480962,-3849.070898,13471.748144,-72472.634111
488.483562,3256.906145,3552.988522,-77835.302597
488.486161,-13767.830521,11399.171507,-72932.291410
488.488761,-6365.771101,5329.482782,-74924.139704
488.491360,4885.359217,-2664.741391,-78294.959896
488.493960,-5625.565159,7550.100608,-72012.976812
488.496559,-3552.988522,4441.235652,-77528.864398
488.499159,-3404.947333,7550.100608,-76762.768900
488.501758,-7698.141797,9326.594869,-74617.701505
488.504358,-5625.565159,4589.276840,-76762.768900
488.506957,-4293.194464,4441.235652,-76609.549800
488.509556,-2960.823768,6661.853478,-73238.729609
488.512156,-1628.453072,7254.018232,-72932.291410
488.514755,-5773.606348,2960.823768,-76149.892501
488.517355,-1924.535449,2220.617826,-76149.892501
488.519954,-740.205942,7846.182985,-71553.319513
488.522554,-10214.842000,8586.388927,-74617.701505
488.525153,-5625.565159,6957.935855,-76915.987999
488.527753,-3849.070898,9178.553681,-75843.454302
488.530352,-3997.112087,9178.553681,-75537.016103
488.532952,1924.535449,6365.771101,-75690.235202
488.535551,-11695.253884,7698.141797,-73698.386908
488.538151,-6217.729913,6661.853478,-73698.386908
488.540750,-148.041188,2072.576638,-73851.606007
488.543350,-1776.494261,4441.235652,-74617.701505
488.545949,-444.123565,7994.224174,-74770.920605
488.548549,-8290.306550,12879.583391,-75690.235202
488.551148,-4441.235652,740.205942,-76762.768900
488.553747,-1628.453072,4145.153275,-78754.617194
488.556347,-13619.789333,8882.471304,-69714.690318
488.558946,17172.777854,3997.112087,-79520.712692
488.561546,-23982.672521,13915.871710,-66497.089226
488.564145,14063.912898,-17024.736666,-84883.381178
488.566745,9918.759623,8290.306550,-69255.033019
488.569344,-17616.901420,5181.441594,-70634.004916
488.571944,24130.713709,-8882.471304,-81818.999186
488.574543,-19541.436869,13175.665768,-69255.033019
488.577143,-740.205942,-1184.329507,-79214.274493
488.579742,14063.912898,1036.288319,-73851.606007
488.582358,-2368.659014,5773.606348,-74311.263306
488.584973,-6661.853478,148.041188,-75996.673402
488.587589,8142.265362,-6957.935855,-80133.589091
488.590204,-7846.182985,4293.194464,-72472.634111
488.592820,7254.018232,-1628.453072,-76915.987999
488.595435,5477.523971,1332.370696,-76609.549800
488.598051,-4885.359217,6217.729913,-76609.549800
488.600666,-3997.112087,1036.288319,-75996.673402
488.603282,-1332.370696,-592.164754,-76149.892501
488.605898,-444.123565,2960.823768,-73238.729609
488.608513,5921.647536,888.247130,-76762.768900
488.611129,-2960.823768,-444.123565,-79827.150892
488.613744,-5033.400406,2220.617826,-77988.521696
488.616360,-2960.823768,2072.576638,-76456.330700
488.618975,2368.659014,2072.576638,-74924.139704
488.621591,5033.400406,3108.864956,-75077.358804
488.624206,1332.370696,-1628.453072,-77682.083497
488.626822,-2072.576638,-2072.576638,-76456.330700
488.629437,3108.864956,-2072.576638,-76609.549800
488.632053,2220.617826,-5181.441594,-77528.864398
488.634668,3997.112087,-3552.988522,-76762.768900
488.637284,-592.164754,2812.782580,-75230.577904
488.639900,-3997.112087,444.123565,-76456.330700
488.642515,-2368.659014,296.082377,-78907.836294
488.645131,2960.823768,3997.112087,-74311.263306
488.647746,-2812.782580,-2516.700203,-77375.645298
488.650362,6365.771101,1332.370696,-76609.549800
488.652977,-11547.212695,6957.935855,-75690.235202
488.655593,6217.729913,-6513.812290,-77528.864398
488.658208,1480.411884,6365.771101,-73238.729609
488.660824,-11251.130318,2812.782580,-75843.454302
488.663439,16728.654289,-1776.494261,-85189.819378
488.666055,-31976.896694,21317.931130,-70021.128517
488.668670,-1924.535449,-7698.141797,-84576.942979
488.671286,13767.830521,9178.553681,-73085.510509
488.673902,-20873.807564,14656.077652,-64045.583633
488.676517,15988.448347,-6069.688724,-82431.875585
488.679133,-11843.295072,10658.965565,-68182.499322
488.681748,-17320.819043,8734.430116,-72472.634111
488.684364,10658.965565,4293.194464,-73698.386908
488.686988,-3256.906145,6957.935855,-77528.864398
488.689612,-13323.706956,14359.995275,-71246.881314
488.692237,-4145.153275,5773.606348,-75077.358804
488.694861,-5477.523971,1332.370696,-75537.016103
488.697485,-1036.288319,6069.688724,-73545.167808
488.700109,-2072.576638,6365.771101,-75996.673402
488.702734,-1480.411884,7994.224174,-75996.673402
488.705358,-7550.100608,9030.512492,-71706.538613
488.707982,-6661.853478,3552.988522,-73851.606007
488.710607,2072.576638,2664.741391,-76303.111601
488.713231,1184.329507,10807.006753,-73391.948708
488.715855,-3849.070898,6957.935855,-75690.235202
488.718480,-444.123565,3404.947333,-75077.358804
488.721104,-5921.647536,6069.688724,-74617.701505
488.723728,-7698.141797,8438.347739,-73238.729609
488.726352,-4589.276840,9770.718434,-74158.044206
488.728977,-2960.823768,7846.182985,-77069.207099
488.731601,-3849.070898,4885.359217,-76303.111601
488.734225,-6069.688724,8142.265362,-73698.386908
488.736850,-5625.565159,6957.935855,-75383.797003
488.739474,-3256.906145,1036.288319,-76915.987999
488.742098,-7550.100608,4293.194464,-76456.330700
488.744722,-740.205942,3404.947333,-76609.549800
488.747347,-7550.100608,12287.418637,-74770.920605
488.749971,-1776.494261,2368.659014,-75230.577904
488.752595,888.247130,5773.606348,-77988.521696
488.755220,-15396.283594,8586.388927,-72012.976812
488.757844,10807.006753,4885.359217,-76303.111601
488.760468,-11695.253884,13027.624579,-67263.184724
488.763093,-1628.453072,-6217.729913,-79520.712692
488.765717,25907.207970,-8438.347739,-79827.150892
488.768341,-19837.519246,15544.324782,-64045.583633
488.770965,6217.729913,-9326.594869,-82431.875585
488.773590,-3701.029710,8882.471304,-73851.606007
488.776214,-5921.647536,5181.441594,-76149.892501
488.778838,11843.295072,-4145.153275,-80440.027290
488.781463,-5033.400406,5921.647536,-73391.948708
488.784087,-5773.606348,-2368.659014,-76149.892501
488.786711,5625.565159,-6661.853478,-79520.712692
488.789335,-4737.318029,2960.823768,-74004.825107
488.791853,4145.153275,1776.494261,-75690.235202
488.794371,7254.018232,-592.164754,-78294.959896
488.796889,-4885.359217,2516.700203,-76762.768900
488.799406,-3552.988522,2368.659014,-73851.606007
488.801924,-1332.370696,-1480.411884,-75077.358804
488.804442,1924.535449,4145.153275,-75690.235202
488.806959,1776.494261,4885.359217,-73851.606007
488.809477,-740.205942,2664.741391,-75996.673402
488.811995,592.164754,4885.359217,-73545.167808
488.814513,-2516.700203,2664.741391,-72625.853210
488.817030,3701.029710,-1184.329507,-79214.274493
488.819548,5181.441594,4737.318029,-77069.207099
488.822066,740.205942,148.041188,-75996.673402
488.824583,2072.576638,-1036.288319,-74464.482406
488.827101,1332.370696,-6069.688724,-74311.263306
488.829619,-2368.659014,2664.741391,-75537.016103
488.832136,2664.741391,3256.906145,-74770.920605
488.834654,-2368.659014,3552.988522,-74924.139704
488.837172,2812.782580,4145.153275,-74770.920605
488.839690,1480.411884,-4885.359217,-77835.302597
488.842207,1332.370696,5625.565159,-74158.044206
488.844725,-8586.388927,2220.617826,-73851.606007
488.847243,8142.265362,-2516.700203,-80746.465489
488.849760,-5181.441594,592.164754,-72625.853210
488.852278,15100.201217,-5329.482782,-80286.808190
488.854796,-21762.054695,20725.766376,-66497.089226
488.857313,-3108.864956,-6365.771101,-81206.122788
488.859831,4589.276840,11991.336260,-71859.757712
488.862349,-21910.095883,28719.990550,-64964.898230
488.864867,3108.864956,-2368.659014,-79827.150892
488.867384,10362.883188,4737.318029,-74770.920605
488.869902,-19689.478057,9622.677246,-71706.538613
488.872420,-2368.659014,-1332.370696,-83197.971083
488.874937,1184.329507,4737.318029,-77069.207099
488.877455,-4885.359217,4589.276840,-73851.606007
488.879973,444.123565,5477.523971,-74770.920605
488.882491,-4589.276840,9030.512492,-75843.454302
488.885008,-11251.130318,7994.224174,-73238.729609
488.887526,2960.823768,-2368.659014,-78294.959896
488.890044,-2812.782580,5921.647536,-74158.044206
488.892594,-4441.235652,7994.224174,-74004.825107
488.895145,-3849.070898,5625.565159,-74617.701505
488.897696,-5773.606348,592.164754,-76456.330700
488.900247,-148.041188,1924.535449,-74464.482406
488.902798,740.205942,4737.318029,-74158.044206
488.905348,-2368.659014,4293.194464,-77682.083497
488.907899,-6365.771101,5033.400406,-75690.235202
488.910450,-13323.706956,7105.977043,-74464.482406
488.913001,-3849.070898,6217.729913,-75996.673402
488.915552,-1628.453072,7254.018232,-76762.768900
488.918102,-4145.153275,9178.553681,-76456.330700
488.920653,-7994.224174,9622.677246,-76915.987999
488.923204,-4145.153275,6365.771101,-75537.016103
488.925755,-1924.535449,-296.082377,-73545.167808
488.928306,-888.247130,2220.617826,-75383.797003
488.930856,-2664.741391,7698.141797,-75537.016103
488.933407,-11843.295072,13619.789333,-74004.825107
488.935958,1628.453072,-296.082377,-77835.302597
488.938509,-6069.688724,6365.771101,-75690.235202
488.941060,-5625.565159,9918.759623,-70940.443115
488.943610,3552.988522,11399.171507,-78754.617194
488.946161,-17468.860231,3108.864956,-73545.167808
488.948712,21465.972318,-10807.006753,-80133.589091
488.951263,-11991.336260,12435.459826,-64964.898230
488.953814,3552.988522,-12287.418637,-81972.218286
488.956364,18061.024985,-5329.482782,-82585.094684
488.958915,-23538.548956,11991.336260,-68488.937521
488.961466,4293.194464,-1924.535449,-79061.055394
488.964017,7254.018232,-3256.906145,-77988.521696
488.966568,-6957.935855,5329.482782,-74311.263306
488.969118,-2516.700203,148.041188,-75230.577904
488.971669,7105.977043,-6661.853478,-77682.083497
488.974220,-9474.636058,3108.864956,-72012.976812
488.976771,8142.265362,-2516.700203,-76915.987999
488.979322,3701.029710,2812.782580,-75230.577904
488.981872,148.041188,5773.606348,-73851.606007
488.984423,-1480.411884,592.164754,-76915.987999
488.986974,-3404.947333,2516.700203,-75690.235202
488.989525,3552.988522,3256.906145,-72319.415011
488.992076,-888.247130,6217.729913,-72625.853210
488.994649,296.082377,1628.453072,-77528.864398
488.997223,-3849.070898,2812.782580,-78141.740796
488.999796,444.123565,6217.729913,-75230.577904
489.002370,7105.977043,1628.453072,-78141.740796
489.004944,2368.659014,3849.070898,-73085.510509
489.007517,7105.977043,-1924.535449,-75077.358804
489.010091,-1776.494261,-1628.453072,-74617.701505
489.012664,-2960.823768,-2516.700203,-77682.083497
489.015238,-3849.070898,1480.411884,-75077.358804
489.017811,4293.194464,1184.329507,-76915.987999
489.020385,2220.617826,6661.853478,-73851.606007
489.022958,2960.823768,-1924.535449,-76915.987999
489.025532,-8438.347739,5625.565159,-73698.386908
489.028106,-1036.288319,-444.123565,-74311.263306
489.030679,5033.400406,4293.194464,-75996.673402
489.033253,740.205942,-1332.370696,-72012.976812
489.035826,15396.283594,-6661.853478,-80899.684589
489.038400,-17764.942608,19837.519246,-64505.240932
489.040973,-13175.665768,-3404.947333,-77835.302597
489.043547,12879.583391,2812.782580,-78907.836294
489.046121,-26647.413912,29460.196492,-66803.527426
489.048694,13767.830521,-6809.894666,-87947.763170
489.051268,0.000000,8438.347739,-72625.853210
489.053841,-19689.478057,6365.771101,-74770.920605
489.056415,-1776.494261,-3404.947333,-82738.313784
489.058988,-2368.659014,8734.430116,-76149.892501
489.061562,-7550.100608,8586.388927,-72012.976812
489.064136,10955.047942,1332.370696,-74924.139704
489.066709,-14063.912898,14508.036463,-69561.471218
489.069283,-15100.201217,9178.553681,-73238.729609
489.071856,6069.688724,148.041188,-78141.740796
489.074430,-1184.329507,6513.812290,-76609.549800
489.077003,-6809.894666,7698.141797,-76149.892501
489.079577,-6217.729913,3552.988522,-76149.892501
489.082150,-7105.977043,6661.853478,-74617.701505
489.084724,-6661.853478,4589.276840,-72472.634111
489.087298,2220.617826,3256.906145,-75077.358804
489.089871,296.082377,5033.400406,-76609.549800
489.092445,-10658.965565,6513.812290,-74924.139704
489.095018,-5625.565159,5033.400406,-76303.111601
489.097520,-7402.059420,8586.388927,-75690.235202
489.100022,1480.411884,5477.523971,-77375.645298
489.102524,-6365.771101,15100.201217,-73545.167808
489.105026,-3701.029710,6217.729913,-74464.482406
489.107528,-3256.906145,-2664.741391,-76609.549800
489.110029,-5625.565159,6217.729913,-71246.881314
489.112531,-296.082377,3997.112087,-75077.358804
489.115033,-7698.141797,13767.830521,-74617.701505
489.117535,444.123565,444.123565,-79980.369991
489.120037,-7698.141797,4589.276840,-78294.959896
489.122539,-6809.894666,7105.977043,-72932.291410
489.125041,1036.288319,12139.377449,-75077.358804
489.127543,-14508.036463,4145.153275,-73085.510509
489.130044,19541.436869,-12583.501014,-83197.971083
489.132546,-9326.594869,12879.583391,-66650.308326
489.135048,-1480.411884,-8290.306550,-78294.959896
489.137550,16580.613101,-9622.677246,-81665.780087
489.140052,-11399.171507,11547.212695,-69714.690318
489.142554,-2220.617826,3997.112087,-77682.083497
489.145056,12435.459826,-296.082377,-77682.083497
489.147557,-6513.812290,5921.647536,-72319.415011
489.150059,-3552.988522,2072.576638,-73391.948708
489.152561,6809.894666,-6661.853478,-78907.836294
489.155063,-1628.453072,888.247130,-74311.263306
489.157565,-888.247130,5033.400406,-73238.729609
489.160067,5477.523971,-740.205942,-78294.959896
489.162569,-1776.494261,4589.276840,-74464.482406
489.165070,-3849.070898,1332.370696,-74311.263306
489.167572,-2072.576638,-148.041188,-75690.235202
489.170074,-296.082377,5477.523971,-76303.111601
489.172576,-592.164754,3849.070898,-76609.549800
489.175078,-2368.659014,2516.700203,-76303.111601
489.177580,888.247130,3701.029710,-75996.673402
489.180082,5329.482782,4293.194464,-73545.167808
489.182584,2812.782580,1480.411884,-73085.510509
489.185085,6661.853478,-1776.494261,-74004.825107
489.187587,-3404.947333,-888.247130,-75996.673402
489.190089,-3849.070898,-2664.741391,-77222.426198
489.192591,888.247130,148.041188,-76456.330700
489.195093,1036.288319,5773.606348,-75690.235202
489.197628,6365.771101,6513.812290,-73545.167808
489.200163,-1036.288319,-1480.411884,-76149.892501
489.202698,1332.370696,1776.494261,-75996.673402
489.205234,-11251.130318,9918.759623,-72319.415011
489.207769,14804.118840,-4293.194464,-77528.864398
489.210304,4293.194464,3701.029710,-75843.454302
489.212839,-12583.501014,3997.112087,-73545.167808
489.215374,7105.977043,0.000000,-81359.341888
489.217910,-32421.020260,19837.519246,-71246.881314
489.220445,1036.288319,-2516.700203,-83810.847481
489.222980,9178.553681,13175.665768,-75077.358804
489.225515,-14804.118840,14211.954086,-66803.527426
489.228050,7105.977043,-2812.782580,-79673.931792
489.230586,-10658.965565,7550.100608,-70787.224015
489.233121,-15544.324782,9474.636058,-73545.167808
489.235656,6957.935855,4885.359217,-75537.016103
489.238191,11251.130318,4145.153275,-79214.274493
489.240726,-19393.395680,10066.800811,-72779.072310
489.243262,-3701.029710,2516.700203,-78141.740796
489.245797,-10807.006753,7105.977043,-73391.948708
489.248332,444.123565,4145.153275,-75383.797003
489.250867,-740.205942,4145.153275,-76609.549800
489.253402,-5773.606348,6365.771101,-76915.987999
489.255938,-4737.318029,6661.853478,-73698.386908
489.258473,-4589.276840,1776.494261,-76609.549800
489.261008,888.247130,296.082377,-78294.959896
489.263543,296.082377,5921.647536,-75077.358804
489.266078,-6513.812290,5477.523971,-74924.139704
489.268614,-9326.594869,4589.276840,-74158.044206
489.271149,-5625.565159,5329.482782,-75537.016103
489.273684,-7402.059420,11251.130318,-75383.797003
489.276219,148.041188,12287.418637,-73545.167808
489.278779,-888.247130,5329.482782,-75690.235202
489.281338,-12435.459826,3108.864956,-75690.235202
489.283898,-296.082377,2664.741391,-76303.111601
489.286457,-14359.995275,9178.553681,-72319.415011
489.289016,10066.800811,5329.482782,-77069.207099
489.291576,-9770.718434,8142.265362,-74464.482406
489.294135,-592.164754,5921.647536,-77375.645298
489.296695,-22650.301825,14804.118840,-72166.195912
489.299254,10214.842000,-7254.018232,-81512.560987
489.301814,-2220.617826,9030.512492,-71859.757712
489.304373,-6809.894666,-1036.288319,-77835.302597
489.306933,19245.354492,-22354.219448,-87028.448573
489.309492,-1184.329507,2220.617826,-75690.235202
489.312051,-21021.848753,6069.688724,-71553.319513
489.314611,12139.377449,-2516.700203,-80899.684589
489.317170,2960.823768,13471.748144,-67569.622924
489.319730,-2220.617826,-1036.288319,-77835.302597
489.322289,1184.329507,-1184.329507,-78754.617194
489.324849,-6957.935855,-1332.370696,-77375.645298
489.327408,-592.164754,-4737.318029,-75690.235202
489.329968,7994.224174,1480.411884,-76149.892501
489.332527,-5033.400406,9326.594869,-73851.606007
489.335086,4145.153275,3849.070898,-76303.111601
489.337646,-4441.235652,-296.082377,-76762.768900
489.340205,-2220.617826,-2072.576638,-75230.577904
489.342765,3256.906145,0.000000,-75230.577904
489.345324,-1036.288319,7105.977043,-75077.358804
489.347884,888.247130,1924.535449,-76149.892501
489.350443,-3108.864956,-296.082377,-74158.044206
489.353003,10510.924376,-1924.535449,-76915.987999
489.355562,1480.411884,444.123565,-72625.853210
489.358121,5773.606348,-2516.700203,-76915.987999
489.360681,-4145.153275,296.082377,-72932.291410
489.363240,1332.370696,-3849.070898,-75077.358804
489.365800,-1036.288319,1332.370696,-75230.577904
489.368359,4145.153275,6217.729913,-74617.701505
489.370919,9622.677246,-1480.411884,-76303.111601
489.373478,-5921.647536,7402.059420,-72625.853210
489.376037,-9918.759623,2368.659014,-72625.853210
489.378597,7698.141797,1332.370696,-76303.111601
489.381171,4293.194464,1036.288319,-71553.319513
489.383746,12731.542202,-3849.070898,-77988.521696
489.386321,-24426.796086,15988.448347,-66037.431928
489.388897,5773.606348,-10658.965565,-83044.751983
489.391472,-4885.359217,19393.395680,-66497.089226
489.394048,-26055.249158,20873.807564,-67416.403824
489.396623,20281.642811,-2516.700203,-88100.982270
489.399198,-8734.430116,14211.954086,-70480.785816
489.401774,-10955.047942,-2516.700203,-81512.560987
489.404349,1480.411884,2072.576638,-75537.016103
489.406924,-15396.283594,11843.295072,-71400.100414
489.409500,-8438.347739,12583.501014,-71859.757712
489.412075,11547.212695,1924.535449,-77222.426198
489.414650,-15100.201217,10658.965565,-72779.072310
489.417226,-13619.789333,8142.265362,-76149.892501
489.419801,592.164754,444.123565,-81665.780087
489.422376,-2664.741391,8290.306550,-73851.606007
489.424952,4293.194464,8290.306550,-74158.044206
489.427527,-4589.276840,5921.647536,-76303.111601
489.430102,-11843.295072,4589.276840,-77682.083497
489.432678,-6661.853478,1776.494261,-77069.207099
489.435253,-888.247130,2812.782580,-75690.235202
489.437829,-3256.906145,6365.771101,-73085.510509
489.440404,-9918.759623,8586.388927,-71859.757712
489.442979,-11843.295072,9178.553681,-77375.645298
489.445555,-1628.453072,9326.594869,-75077.358804
489.448130,2812.782580,8734.430116,-72012.976812
489.450705,-1184.329507,5773.606348,-72472.634111
489.453281,-4737.318029,5477.523971,-74617.701505
489.455856,-13471.748144,3404.947333,-74311.263306
489.458431,-5477.523971,7550.100608,-75843.454302
489.461007,4293.194464,4293.194464,-74464.482406
489.463582,-2220.617826,8586.388927,-75690.235202
489.466157,-5477.523971,8586.388927,-73698.386908
489.468733,-9326.594869,15248.242405,-74158.044206
489.471308,-12435.459826,2368.659014,-72932.291410
489.473884,25315.043216,-7846.182985,-80593.246390
489.476459,-12879.583391,15544.324782,-66343.870127
489.479034,5773.606348,2368.659014,-71246.881314
489.481610,16284.530724,-12287.418637,-82738.313784
489.484196,-17468.860231,12287.418637,-65577.774629
489.486783,3997.112087,3108.864956,-77069.207099
489.489370,18505.148550,592.164754,-77988.521696
489.491957,-4145.153275,5625.565159,-73391.948708
489.494544,-3997.112087,-1480.411884,-73391.948708
489.497130,5329.482782,-8586.388927,-77528.864398
489.499717,-2960.823768,-1036.288319,-72319.415011
489.502304,9474.636058,2220.617826,-76915.987999
489.504891,1036.288319,3997.112087,-78907.836294
489.507478,-2516.700203,5921.647536,-74924.139704
489.510064,1184.329507,-148.041188,-76149.892501
489.512651,-3404.947333,5329.482782,-71400.100414
489.515238,4885.359217,11103.089130,-66650.308326
489.517825,-148.041188,7698.141797,-70327.566716
489.520412,-1036.288319,-740.205942,-77682.083497
489.522998,2368.659014,444.123565,-75843.454302
489.525585,1480.411884,1776.494261,-74004.825107
489.528172,6217.729913,-2072.576638,-76303.111601
489.530759,-5329.482782,2960.823768,-72472.634111
489.533346,1776.494261,-5773.606348,-76915.987999
489.535932,-592.164754,3108.864956,-74617.701505
489.538519,2368.659014,5181.441594,-74464.482406
489.541106,1332.370696,-2072.576638,-77528.864398
489.543693,2812.782580,5773.606348,-75690.235202
489.546280,-15692.365970,6513.812290,-71093.662214
489.548866,11103.089130,-3108.864956,-77375.645298
489.551453,-2072.576638,148.041188,-77988.521696
489.554040,4441.235652,-6661.853478,-79827.150892
489.556627,-1628.453072,8734.430116,-74770.920605
489.559214,-25759.166782,4885.359217,-74617.701505
489.561800,14359.995275,-2664.741391,-84270.504780
489.564387,-22058.137072,28275.866984,-67263.184724
489.566974,3701.029710,3849.070898,-82431.875585
489.569561,10658.965565,1776.494261,-77682.083497
489.572148,-13175.665768,9178.553681,-68029.280222
489.574734,-17172.777854,4589.276840,-74464.482406
489.577321,7846.182985,1332.370696,-78448.178995
489.579908,-3404.947333,13619.789333,-72779.072310
489.582495,-2072.576638,4293.194464,-75383.797003
489.585082,740.205942,6661.853478,-76915.987999
489.587677,-16136.489536,11251.130318,-70634.004916
489.590272,-4885.359217,5921.647536,-74464.482406
489.592867,8734.430116,4145.153275,-74770.920605
489.595462,296.082377,7994.224174,-72472.634111
489.598057,-6365.771101,3108.864956,-72779.072310
489.600652,-8142.265362,3552.988522,-74770.920605
489.603247,-1036.288319,592.164754,-78907.836294
489.605842,-3849.070898,6513.812290,-72932.291410
489.608438,-5033.400406,8586.388927,-74004.825107
489.611033,-9918.759623,11843.295072,-75383.797003
489.613628,-4737.318029,6661.853478,-76762.768900
489.616223,1776.494261,5181.441594,-76303.111601
489.618818,-444.123565,3849.070898,-77222.426198
489.621413,-6217.729913,6957.935855,-75690.235202
489.624008,-16284.530724,8438.347739,-74311.263306
489.626603,5921.647536,3108.864956,-78448.178995
489.629198,-9178.553681,10807.006753,-70787.224015
489.631794,6069.688724,5921.647536,-76915.987999
489.634389,-23094.425390,14211.954086,-72319.415011
489.636984,2664.741391,-4737.318029,-82738.313784
489.639579,-5921.647536,6513.812290,-74004.825107
489.642174,-592.164754,-3404.947333,-77835.302597
489.644769,29164.114115,-13175.665768,-84576.942979
489.647364,-18505.148550,12139.377449,-64811.679131
489.649959,-2960.823768,-7254.018232,-78754.617194
489.652554,-2960.823768,3108.864956,-75077.358804
489.655150,2516.700203,11251.130318,-70480.785816
489.657745,1480.411884,-592.164754,-77682.083497
489.660340,6957.935855,-1776.494261,-78601.398095
489.662935,-9474.636058,-1036.288319,-76303.111601
489.665530,-1776.494261,-6069.688724,-75690.235202
489.668125,8438.347739,-2960.823768,-76456.330700
489.670720,-2368.659014,8586.388927,-73085.510509
489.673315,5773.606348,2516.700203,-78448.178995
489.675910,-2960.823768,2812.782580,-75077.358804
489.678505,-2220.617826,3108.864956,-70940.443115
489.681101,-1480.411884,740.205942,-72166.195912
489.683696,2960.823768,4589.276840,-77835.302597
489.686291,-592.164754,3552.988522,-75996.673402
489.688886,2960.823768,-1776.494261,-73391.948708
489.691422,4589.276840,-4145.153275,-80899.684589
489.693958,1924.535449,740.205942,-79061.055394
489.696494,1628.453072,-1332.370696,-78754.617194
489.699029,-2812.782580,-888.247130,-75537.016103
489.701565,-1480.411884,2220.617826,-75383.797003
489.704101,3404.947333,-1036.288319,-75077.358804
489.706637,888.247130,5329.482782,-74464.482406
489.709173,5181.441594,-148.041188,-77682.083497
489.711709,-9770.718434,6957.935855,-74464.482406
489.714245,9178.553681,-3997.112087,-76609.549800
489.716780,-1480.411884,3404.947333,-74004.825107
489.719316,-2812.782580,-3849.070898,-77682.083497
489.721852,14508.036463,-4293.194464,-83197.971083
489.724388,-25018.960840,21762.054695,-67416.403824
489.726924,-14804.118840,3701.029710,-77069.207099
489.729460,13471.748144,9178.553681,-75537.016103
489.731996,-11399.171507,16432.571912,-66497.089226
489.734531,2960.823768,-2220.617826,-80286.808190
489.737067,-1332.370696,7105.977043,-70174.347617
489.739603,-19985.560434,7254.018232,-72319.415011
489.742139,4293.194464,2220.617826,-77375.645298
489.744675,5033.400406,8734.430116,-77069.207099
489.747211,-9326.594869,9918.759623,-73085.510509
489.749747,2516.700203,2516.700203,-79367.493593
489.752282,-15692.365970,9030.512492,-72625.853210
489.754818,-8734.430116,9030.512492,-72166.195912
489.757354,4441.235652,6809.894666,-72166.195912
489.759890,3256.906145,8586.388927,-71859.757712
489.762426,-5477.523971,5773.606348,-72166.195912
489.764962,-6957.935855,3701.029710,-75077.358804
489.767498,-1332.370696,2664.741391,-76303.111601
489.770033,-4737.318029,11547.212695,-72166.195912
489.772569,-8586.388927,10658.965565,-72779.072310
489.775105,-3256.906145,7698.141797,-75230.577904
489.777641,-5329.482782,12287.418637,-69408.252119
489.780177,-1924.535449,3404.947333,-77528.864398
489.782713,-2220.617826,6809.894666,-74770.920605
489.785249,-11843.295072,7254.018232,-73851.606007
489.787784,2220.617826,8438.347739,-74158.044206
489.790320,-4441.235652,7105.977043,-75383.797003
489.792875,-148.041188,7550.100608,-74464.482406
489.795429,-18949.272115,12879.583391,-72779.072310
489.797984,5477.523971,-5625.565159,-81206.122788
489.800539,-7105.977043,12139.377449,-71093.662214
489.803093,-1332.370696,-3849.070898,-78448.178995
489.805648,28571.949361,-15396.283594,-82891.532884
489.808202,-18653.189738,13175.665768,-61747.297139
489.810757,592.164754,-8290.306550,-79367.493593
489.813312,5181.441594,888.247130,-76915.987999
489.815866,-7550.100608,12583.501014,-70787.224015
489.818421,11547.212695,-1924.535449,-78907.836294
489.820975,4293.194464,1184.329507,-75537.016103
489.823530,-10214.842000,3404.947333,-74924.139704
489.826085,-2072.576638,-5921.647536,-77222.426198
489.828639,9178.553681,-3997.112087,-77682.083497
489.831194,-3404.947333,6513.812290,-73238.729609
489.833748,3849.070898,2664.741391,-78754.617194
489.836303,-5921.647536,4589.276840,-74924.139704
489.838858,-4293.194464,3997.112087,-73698.386908
489.841412,-3849.070898,3108.864956,-73085.510509
489.843967,1628.453072,5921.647536,-76915.987999
489.846521,1332.370696,4441.235652,-75996.673402
489.849076,-4885.359217,-1184.329507,-76149.892501
489.851631,6513.812290,-4737.318029,-78141.740796
489.854185,1776.494261,2516.700203,-74617.701505
489.856740,296.082377,-1036.288319,-73545.167808
489.859294,-1776.494261,-2368.659014,-76149.892501
489.861849,3552.988522,740.205942,-74924.139704
489.864404,-5181.441594,-888.247130,-77222.426198
489.866958,11991.336260,-1332.370696,-80899.684589
489.869513,-13027.624579,6957.935855,-74158.044206
489.872067,7550.100608,-2812.782580,-78448.178995
489.874622,-5477.523971,-2664.741391,-79367.493593
489.877177,5033.400406,-6957.935855,-79827.150892
489.879731,2368.659014,8438.347739,-74924.139704
489.882286,-25611.125593,6513.812290,-74617.701505
489.884840,11547.212695,-4293.194464,-86875.229473
489.887395,-23834.631332,26203.290347,-69101.813920
489.889950,888.247130,5921.647536,-79520.712692
489.892504,11103.089130,-1776.494261,-79061.055394
489.895073,-9918.759623,8438.347739,-70480.785816
489.897642,-19097.313304,2072.576638,-75996.673402
489.900211,5033.400406,-296.082377,-77835.302597
489.902779,-6957.935855,11991.336260,-73545.167808
489.905348,-888.247130,5033.400406,-76609.549800
489.907917,2812.782580,4589.276840,-79367.493593
489.910486,-18061.024985,7994.224174,-73085.510509
489.913055,-6217.729913,2368.659014,-75690.235202
489.915623,-5033.400406,5329.482782,-76609.549800
489.918192,1036.288319,5181.441594,-77222.426198
489.920761,-3256.906145,3404.947333,-74158.044206
489.923330,-6513.812290,6069.688724,-74311.263306
489.925899,-4589.276840,5773.606348,-78754.617194
489.928467,-7994.224174,8438.347739,-72012.976812
489.931036,-2812.782580,7105.977043,-76456.330700
489.933605,2960.823768,4589.276840,-78754.617194
489.936174,-8142.265362,9326.594869,-76456.330700
489.938743,-10214.842000,5329.482782,-78448.178995
489.941311,-5033.400406,5033.400406,-75537.016103
489.943880,-8882.471304,10066.800811,-75537.016103
489.946449,592.164754,4589.276840,-75230.577904
489.949018,-2072.576638,5921.647536,-77835.302597
489.951587,-5773.606348,7402.059420,-72625.853210
489.954155,-12879.583391,15100.201217,-73238.729609
489.956724,-10362.883188,2368.659014,-75230.577904
489.959293,20873.807564,-5773.606348,-82585.094684
489.961862,3404.947333,9770.718434,-69101.813920
489.964431,-15840.407159,-4145.153275,-76303.111601
489.966999,16580.613101,-14508.036463,-84730.162079
489.969568,-12139.377449,10362.883188,-66343.870127
489.972137,2516.700203,3997.112087,-75843.454302
489.974706,15396.283594,3849.070898,-75230.577904
489.977275,-1480.411884,5033.400406,-72932.291410
489.979843,-2368.659014,-1036.288319,-73238.729609
489.982412,7402.059420,-3997.112087,-77222.426198
489.984981,-8438.347739,1480.411884,-70940.443115
489.987550,12435.459826,-3701.029710,-77069.207099
489.990119,1628.453072,1036.288319,-79367.493593
489.992687,-7402.059420,7402.059420,-74617.701505
489.995256,-3256.906145,4737.318029,-74311.263306
489.997778,5921.647536,3108.864956,-73085.510509
490.000300,5329.482782,1184.329507,-77069.207099
490.002822,-2220.617826,2664.741391,-74158.044206
490.005343,2664.741391,-2220.617826,-75996.673402
490.007865,5773.606348,-7105.977043,-81818.999186
490.010387,-1628.453072,-2072.576638,-74924.139704
490.012909,-1776.494261,444.123565,-74464.482406
490.015430,-1628.453072,296.082377,-74158.044206
490.017952,5181.441594,-4293.194464,-76915.987999
490.020474,-1184.329507,6217.729913,-74464.482406
490.022996,2368.659014,2812.782580,-75383.797003
490.025517,-1776.494261,4737.318029,-74770.920605
490.028039,-148.041188,148.041188,-69714.690318
490.030561,5625.565159,-1924.535449,-74770.920605
490.033082,-7994.224174,15100.201217,-69867.909418
490.035604,5181.441594,-6365.771101,-80899.684589
490.038126,-6365.771101,15100.201217,-68642.156621
490.040648,-25167.002028,17764.942608,-68642.156621
490.043169,14063.912898,-2368.659014,-87334.886772
490.045691,-7994.224174,15988.448347,-69408.252119
490.048213,-9474.636058,1776.494261,-77528.864398
490.050735,4293.194464,-296.082377,-75230.577904
490.053256,-15248.242405,8142.265362,-72932.291410
490.055778,-4145.153275,5477.523971,-76456.330700
490.058300,5921.647536,8290.306550,-77682.083497
490.060822,-11547.212695,10362.883188,-72779.072310
490.063343,3552.988522,3552.988522,-76456.330700
490.065865,-10066.800811,5033.400406,-75843.454302
490.068387,-11547.212695,8586.388927,-72166.195912
490.070909,2812.782580,4589.276840,-74311.263306
490.073430,-1776.494261,4737.318029,-74464.482406
490.075952,-5181.441594,5329.482782,-73391.948708
490.078474,-7550.100608,6661.853478,-72779.072310
490.080996,-8290.306550,8882.471304,-75690.235202
490.083517,-3108.864956,7550.100608,-77682.083497
490.086039,4145.153275,8142.265362,-78754.617194
490.088561,-9030.512492,11103.089130,-76456.330700
490.091083,-7105.977043,7698.141797,-76149.892501
490.093604,-7254.018232,4737.318029,-75230.577904
490.096126,-6809.894666,11991.336260,-73391.948708
490.098668,444.123565,3108.864956,-71093.662214
490.101211,2960.823768,6217.729913,-76303.111601
490.103753,-18949.272115,10214.842000,-74004.825107
490.106295,4737.318029,1776.494261,-78294.959896
490.108837,-14359.995275,13767.830521,-67109.965625
490.111380,14804.118840,-13471.748144,-83657.628382
490.113922,19985.560434,2072.576638,-73851.606007
490.116464,-24722.878463,6365.771101,-67416.403824
490.119006,13471.748144,-16284.530724,-84270.504780
490.121548,-5477.523971,8734.430116,-68795.375720
490.124091,-5477.523971,7105.977043,-76915.987999
490.126633,13323.706956,2516.700203,-79061.055394
490.129175,-2072.576638,6069.688724,-72166.195912
490.131717,-7105.977043,-1036.288319,-73698.386908
490.134260,6365.771101,-5773.606348,-77988.521696
490.136802,2220.617826,296.082377,-73698.386908
490.139344,-1036.288319,3997.112087,-73238.729609
490.141886,7550.100608,1924.535449,-79827.150892
490.144428,-4293.194464,5773.606348,-76149.892501
490.146971,-2220.617826,3108.864956,-74617.701505
490.149513,-1036.288319,1184.329507,-75843.454302
490.152055,3701.029710,3997.112087,-76762.768900
490.154597,1924.535449,5181.441594,-73085.510509
490.157140,3701.029710,-7254.018232,-79673.931792
490.159682,3108.864956,-3997.112087,-75996.673402
490.162224,-7846.182985,2368.659014,-72319.415011
490.164766,5921.647536,-3404.947333,-78141.740796
490.167309,5477.523971,444.123565,-74617.701505
490.169851,-6217.729913,9622.677246,-72472.634111
490.172393,3552.988522,-1480.411884,-78294.959896
490.174935,1036.288319,5033.400406,-76303.111601
490.177477,-3256.906145,3552.988522,-71246.881314
490.180020,2960.823768,-1036.288319,-77069.207099
490.182562,-4589.276840,-592.164754,-76149.892501
490.185104,5773.606348,2812.782580,-79214.274493
490.187646,-24574.837274,13471.748144,-74158.044206
490.190189,1776.494261,-3256.906145,-83504.409282
490.192731,-4737.318029,20429.683999,-70787.224015
490.195273,-6957.935855,12287.418637,-70787.224015
490.197815,7105.977043,1036.288319,-78294.959896
490.200373,-10955.047942,10955.047942,-68029.280222
490.202931,-16728.654289,5773.606348,-72779.072310
490.205490,3256.906145,2664.741391,-78448.178995
490.208048,592.164754,10066.800811,-75996.673402
490.210606,-10214.842000,10362.883188,-73545.167808
490.213164,2220.617826,5773.606348,-76456.330700
490.215722,-12435.459826,7105.977043,-74464.482406
490.218280,-8290.306550,5181.441594,-74924.139704
490.220838,-1184.329507,3849.070898,-75383.797003
490.223397,296.082377,6365.771101,-75383.797003
490.225955,592.164754,2812.782580,-75690.235202
490.228513,-11843.295072,5921.647536,-73851.606007
490.231071,-2960.823768,4589.276840,-77375.645298
490.233629,-4589.276840,9326.594869,-75383.797003
490.236187,-2072.576638,6217.729913,-78294.959896
490.238745,-5033.400406,9178.553681,-76303.111601
490.241304,-6217.729913,6957.935855,-75077.358804
490.243862,-11695.253884,7550.100608,-74004.825107
490.246420,6661.853478,2072.576638,-74924.139704
490.248978,-8290.306550,4441.235652,-74004.825107
490.251536,2368.659014,7402.059420,-75843.454302
490.254094,-17172.777854,15544.324782,-76609.549800
490.256652,-148.041188,0.000000,-80593.246390
490.259210,1332.370696,7698.141797,-74004.825107
490.261769,-6365.771101,592.164754,-73238.729609
490.264327,25759.166782,-17320.819043,-85343.038477
490.266885,-16136.489536,8290.306550,-67722.842023
490.269443,-2220.617826,-4737.318029,-77528.864398
490.272001,8882.471304,-2220.617826,-79061.055394
490.274559,5625.565159,12287.418637,-71400.100414
490.277117,-3701.029710,8142.265362,-75383.797003
490.279676,7550.100608,-5773.606348,-81512.560987
490.282234,-7846.182985,592.164754,-75230.577904
490.284792,-4589.276840,-4885.359217,-74004.825107
490.287350,12879.583391,-5329.482782,-78141.740796
490.289908,-4441.235652,7254.018232,-73545.167808
490.292466,-1184.329507,3256.906145,-75690.235202
490.295024,-6069.688724,1628.453072,-75383.797003
490.297582,-1036.288319,3849.070898,-74617.701505
490.300141,2368.659014,3256.906145,-74004.825107
490.302711,1036.288319,3256.906145,-77222.426198
490.305281,6069.688724,-444.123565,-79061.055394
490.307851,296.082377,-3404.947333,-73391.948708
490.310422,-4737.318029,444.123565,-71553.319513
490.312992,-148.041188,-2220.617826,-72932.291410
490.315562,11843.295072,-3108.864956,-75077.358804
490.318132,-2812.782580,5773.606348,-74617.701505
490.320702,4441.235652,1628.453072,-74617.701505
490.323273,-2368.659014,2960.823768,-76303.111601
490.325843,4441.235652,-296.082377,-73391.948708
490.328413,-1628.453072,592.164754,-75690.235202
490.330983,-2220.617826,-5329.482782,-76915.987999
490.333554,7994.224174,2516.700203,-78754.617194
490.336124,-30200.402434,15100.201217,-71400.100414
490.338694,7254.018232,-7698.141797,-88407.420469
490.341264,9030.512492,9918.759623,-74464.482406
490.343835,-9178.553681,19541.436869,-65118.117330
490.346405,2664.741391,-3997.112087,-81512.560987
490.348975,-2368.659014,8438.347739,-69408.252119
490.351545,-20577.725188,6217.729913,-71859.757712
490.354115,5181.441594,1776.494261,-77375.645298
490.356686,-1628.453072,11399.171507,-75230.577904
490.359256,-9918.759623,10955.047942,-73391.948708
490.361826,3256.906145,4737.318029,-76303.111601
490.364396,-11103.089130,6513.812290,-73391.948708
490.366967,-4737.318029,6661.853478,-74464.482406
490.369537,-296.082377,2812.782580,-77375.645298
490.372107,1332.370696,3701.029710,-78294.959896
490.374677,-5921.647536,4293.194464,-75383.797003
490.377248,-13175.665768,6809.894666,-74004.825107
490.379818,148.041188,4293.194464,-78907.836294
490.382388,-5329.482782,12435.459826,-72779.072310
490.384967,-5773.606348,12287.418637,-74311.263306
490.387547,444.123565,9326.594869,-75843.454302
490.390127,-9918.759623,7846.182985,-72779.072310
490.392706,-888.247130,6217.729913,-74770.920605
490.395286,-2220.617826,2220.617826,-74158.044206
490.397866,-1776.494261,7550.100608,-74924.139704
490.400445,-10955.047942,10510.924376,-72932.291410
490.403025,2220.617826,10955.047942,-77069.207099
490.405604,-20873.807564,18061.024985,-66803.527426
490.408184,9474.636058,-9622.677246,-81206.122788
490.410764,28127.825796,-9030.512492,-78754.617194
490.413343,-16432.571912,9030.512492,-68182.499322
490.415923,-8438.347739,-1480.411884,-78141.740796
490.418503,11399.171507,-2960.823768,-79980.369991
490.421082,-6069.688724,15840.407159,-70480.785816
490.423662,1924.535449,-444.123565,-79367.493593
490.426242,11103.089130,-5921.647536,-81972.218286
490.428821,-12435.459826,1924.535449,-74770.920605
490.431401,3997.112087,-7698.141797,-77528.864398
490.433980,7105.977043,-5329.482782,-76456.330700
490.436560,-4737.318029,8586.388927,-69867.909418
490.439140,1776.494261,1628.453072,-78907.836294
490.441719,-148.041188,-888.247130,-78754.617194
490.444299,148.041188,5625.565159,-73545.167808
490.446879,888.247130,6069.688724,-72932.291410
490.449458,9770.718434,-740.205942,-76149.892501
490.452038,7846.182985,-3997.112087,-74617.701505
490.454618,-5625.565159,1036.288319,-72166.195912
490.457197,-2812.782580,-7550.100608,-80133.589091
490.459777,5329.482782,-2368.659014,-76456.330700
490.462356,-1628.453072,-3256.906145,-76762.768900
490.464936,8438.347739,4737.318029,-76456.330700
490.467516,-6069.688724,8142.265362,-73085.510509
490.470095,1480.411884,444.123565,-78448.178995
490.472675,2812.782580,-6069.688724,-75843.454302
490.475255,9030.512492,-3404.947333,-76915.987999
490.477834,-14952.160028,11399.171507,-68335.718422
490.480414,12583.501014,-8882.471304,-79980.369991
490.482994,10362.883188,2812.782580,-80593.246390
490.485573,-31088.649564,29460.196492,-66650.308326
490.488158,10510.924376,-888.247130,-85802.695776
490.490743,7550.100608,5477.523971,-76609.549800
490.493328,-23390.507767,11251.130318,-73085.510509
490.495913,2072.576638,-9622.677246,-84883.381178
490.498498,-5921.647536,9030.512492,-72472.634111
490.501083,-12731.542202,11843.295072,-71859.757712
490.503668,5625.565159,4293.194464,-79520.712692
490.506253,-11399.171507,11991.336260,-73085.510509
490.508838,-3552.988522,3108.864956,-75996.673402
490.511422,1480.411884,1776.494261,-77069.207099
490.514007,-4293.194464,5181.441594,-74311.263306
490.516592,3256.906145,1776.494261,-77835.302597
490.519177,-3552.988522,7402.059420,-72319.415011
490.521762,-12287.418637,4885.359217,-77528.864398
490.524347,-3404.947333,5329.482782,-75996.673402
490.526932,-6809.894666,10362.883188,-74770.920605
490.529517,-296.082377,8734.430116,-77682.083497
490.532102,-3404.947333,12139.377449,-74004.825107
490.534687,-12731.542202,3997.112087,-76303.111601
490.537272,1332.370696,5773.606348,-74617.701505
490.539857,-4293.194464,2220.617826,-74311.263306
490.542442,-1628.453072,6217.729913,-74311.263306
490.545027,-12287.418637,10807.006753,-72779.072310
490.547611,1184.329507,10066.800811,-76915.987999
490.550196,-15100.201217,17616.901420,-68488.937521
490.552781,1184.329507,-7254.018232,-80593.246390
490.555366,29312.155303,-10214.842000,-79827.150892
490.557951,-20429.683999,10807.006753,-60827.982541
490.560536,5033.400406,-13915.871710,-81052.903688
490.563121,3701.029710,4145.153275,-73085.510509
490.565706,-13323.706956,13323.706956,-72319.415011
490.568291,15544.324782,-2664.741391,-81512.560987
490.570876,3997.112087,3701.029710,-73851.606007
490.573461,-10658.965565,3552.988522,-71093.662214
490.576046,9030.512492,-8438.347739,-78601.398095
490.578631,-2516.700203,444.123565,-72779.072310
490.581216,148.041188,6365.771101,-71246.881314
490.583800,3997.112087,2516.700203,-77375.645298
490.586385,-5329.482782,3404.947333,-76303.111601
490.588970,-1924.535449,2960.823768,-76303.111601
490.591559,-1924.535449,7254.018232,-73545.167808
490.594148,6957.935855,-888.247130,-77069.207099
490.596736,7402.059420,-2516.700203,-76915.987999
490.599325,-3997.112087,1184.329507,-75230.577904
490.601914,-6069.688724,-4441.235652,-77682.083497
490.604502,5921.647536,-3997.112087,-74770.920605
490.607091,-5477.523971,5329.482782,-74004.825107
490.609679,10807.006753,740.205942,-78601.398095
490.612268,-1776.494261,6661.853478,-75690.235202
490.614857,888.247130,2220.617826,-74004.825107
490.617445,-2664.741391,-2960.823768,-77375.645298
490.620034,-3404.947333,-4441.235652,-76762.768900
490.622623,10066.800811,-592.164754,-79673.931792
490.625211,-28868.031738,18505.148550,-68182.499322
490.627800,4589.276840,-4885.359217,-85343.038477
490.630389,-5181.441594,22946.384202,-70480.785816
490.632977,-11399.171507,16728.654289,-67876.061123
490.635566,13471.748144,-4589.276840,-83044.751983
490.638155,-10658.965565,10955.047942,-69255.033019
490.640743,-15248.242405,3256.906145,-71859.757712
490.643332,6217.729913,-444.123565,-77528.864398
490.645920,-9770.718434,18505.148550,-70021.128517
490.648509,-6217.729913,8586.388927,-76762.768900
490.651098,2812.782580,3849.070898,-78448.178995
490.653686,-8882.471304,4145.153275,-75383.797003
490.656275,-3552.988522,7402.059420,-74617.701505
490.658864,-2812.782580,2220.617826,-75996.673402
490.661452,-3552.988522,3849.070898,-75230.577904
490.664041,-2220.617826,5921.647536,-73851.606007
490.666630,-12583.501014,9622.677246,-72012.976812
490.669218,-6809.894666,7402.059420,-74464.482406
490.671807,-740.205942,10362.883188,-73391.948708
490.674396,-2220.617826,9474.636058,-75843.454302
490.676984,-6809.894666,4589.276840,-75996.673402
490.679573,-888.247130,6365.771101,-74158.044206
490.682162,-7846.182985,3404.947333,-72779.072310
490.684750,1036.288319,2960.823768,-77069.207099
490.687339,-9770.718434,8734.430116,-74004.825107
490.689927,6217.729913,3108.864956,-78448.178995
490.692516,-15840.407159,19393.395680,-68642.156621
490.695108,5181.441594,-10510.924376,-82891.532884
490.697699,26055.249158,-8438.347739,-79061.055394
490.700291,-21465.972318,7698.141797,-60981.201641
490.702882,14508.036463,-16728.654289,-84117.285680
490.705474,-2664.741391,6069.688724,-72166.195912
490.708066,-15988.448347,10807.006753,-75230.577904
490.710657,18061.024985,-1924.535449,-80593.246390
490.713249,3108.864956,5033.400406,-72472.634111
490.715840,-8438.347739,2812.782580,-71400.100414
490.718432,6513.812290,-7846.182985,-78601.398095
490.721024,-4441.235652,-1184.329507,-75077.358804
490.723615,4145.153275,6661.853478,-72932.291410
490.726207,3701.029710,-740.205942,-80286.808190
490.728798,888.247130,1184.329507,-76915.987999
490.731390,-592.164754,3849.070898,-73698.386908
490.733982,-740.205942,4589.276840,-74004.825107
490.736573,10807.006753,-2516.700203,-78907.836294
490.739165,1924.535449,-1480.411884,-74617.701505
490.741756,1480.411884,-3404.947333,-76149.892501
490.744348,-2368.659014,-3849.070898,-74770.920605
490.746940,-2664.741391,-4737.318029,-73238.729609
490.749531,10362.883188,1184.329507,-76149.892501
490.752123,-592.164754,5181.441594,-74311.263306
490.754714,4589.276840,3701.029710,-76609.549800
490.757306,-296.082377,-2812.782580,-77988.521696
490.759898,13471.748144,-7994.224174,-80899.684589
490.762489,-16284.530724,13619.789333,-68029.280222
490.765081,1480.411884,-8438.347739,-80133.589091
490.767672,888.247130,13619.789333,-71553.319513
490.770264,-30940.608376,26795.455100,-65424.555529
490.772856,15840.407159,-3404.947333,-90552.487864
490.775447,-2072.576638,11103.089130,-69408.252119
490.778039,-14359.995275,3552.988522,-74617.701505
490.780630,8142.265362,-5921.647536,-80899.684589
490.783222,-11991.336260,8734.430116,-72625.853210
490.785813,-9474.636058,7402.059420,-74158.044206
490.788405,5477.523971,8734.430116,-77528.864398
490.790997,-10955.047942,11843.295072,-72472.634111
490.793588,888.247130,4441.235652,-73698.386908
490.796180,1332.370696,3108.864956,-77222.426198
490.798772,-2368.659014,8882.471304,-77069.207099
490.801365,-740.205942,6217.729913,-74158.044206
490.803957,-3997.112087,4293.194464,-72779.072310
490.806550,-7698.141797,9770.718434,-74311.263306
490.809142,-14063.912898,11695.253884,-72779.072310
490.811735,-2072.576638,9178.553681,-75690.235202
490.814327,-1184.329507,8882.471304,-74617.701505
490.816920,-8290.306550,7105.977043,-74770.920605
490.819512,-1628.453072,4885.359217,-76609.549800
490.822104,-9178.553681,3849.070898,-73545.167808
490.824697,444.123565,2516.700203,-76915.987999
490.827289,-14952.160028,10066.800811,-76609.549800
490.829882,7105.977043,1184.329507,-76303.111601
490.832474,1480.411884,11103.089130,-72779.072310
490.835067,-12731.542202,1480.411884,-72625.853210
490.837659,27979.784608,-24130.713709,-84883.381178
490.840252,-11547.212695,7846.182985,-64505.240932
490.842844,-2368.659014,-6661.853478,-79673.931792
490.845437,5329.482782,-148.041188,-79367.493593
490.848029,-13027.624579,17764.942608,-70634.004916
490.850621,7402.059420,888.247130,-78907.836294
490.853214,9622.677246,-1480.411884,-78601.398095
490.855806,-8882.471304,2072.576638,-73238.729609
490.858399,4145.153275,-7105.977043,-77988.521696
490.860991,2368.659014,-1776.494261,-75690.235202
490.863584,-592.164754,6957.935855,-75230.577904
490.866176,4145.153275,4589.276840,-74924.139704
490.868769,-2516.700203,3108.864956,-74158.044206
490.871361,-3552.988522,5625.565159,-75230.577904
490.873954,3108.864956,2220.617826,-74311.263306
490.876546,4737.318029,-1480.411884,-77222.426198
490.879138,6069.688724,-2516.700203,-76456.330700
490.881731,1628.453072,-2516.700203,-75843.454302
490.884323,-5625.565159,-5921.647536,-77069.207099
490.886916,-592.164754,4293.194464,-74924.139704
490.889508,-740.205942,3849.070898,-75230.577904
490.892101,3256.906145,4737.318029,-77069.207099
490.894693,6661.853478,1924.535449,-74158.044206
490.897286,-7254.018232,5033.400406,-73085.510509
490.899878,-5033.400406,7846.182985,-69714.690318
490.902471,17616.901420,-10807.006753,-81972.218286
490.905064,-20133.601622,25315.043216,-64045.583633
490.907657,-19097.313304,14508.036463,-72625.853210
490.910249,12731.542202,7994.224174,-81972.218286
490.912842,-11103.089130,19393.395680,-69255.033019
490.915435,-5773.606348,-4589.276840,-80593.246390
490.918028,5329.482782,1332.370696,-73391.948708
490.920621,-16728.654289,8142.265362,-72319.415011
490.923214,0.000000,3404.947333,-79061.055394
490.925807,-740.205942,9622.677246,-78448.178995
490.928399,-12287.418637,14359.995275,-71859.757712
490.930992,-2516.700203,3256.906145,-75077.358804
490.933585,-4589.276840,592.164754,-78448.178995
490.936178,-4737.318029,6217.729913,-77375.645298
490.938771,-2516.700203,6513.812290,-75230.577904
490.941364,-5921.647536,5477.523971,-75077.358804
490.943956,-10214.842000,7698.141797,-75537.016103
490.946549,-11103.089130,13619.789333,-71706.538613
490.949142,-3997.112087,15248.242405,-73238.729609
490.951735,1924.535449,3997.112087,-77375.645298
490.954328,-8882.471304,10362.883188,-73391.948708
490.956921,2072.576638,0.000000,-77222.426198
490.959513,-8882.471304,3701.029710,-75077.358804
490.962106,-5921.647536,7846.182985,-75383.797003
490.964699,-9918.759623,9030.512492,-76303.111601
490.967292,6217.729913,-2812.782580,-80746.465489
490.969885,5921.647536,8438.347739,-75383.797003
490.972478,-16136.489536,7105.977043,-71093.662214
490.975071,27091.537477,-26203.290347,-88560.639569
490.977663,-8290.306550,1628.453072,-70787.224015
490.980256,-4737.318029,-6661.853478,-77682.083497
490.982849,8734.430116,-2516.700203,-78907.836294
490.985442,-10214.842000,17616.901420,-70480.785816
490.988035,6365.771101,2220.617826,-77988.521696
490.990628,9770.718434,-2664.741391,-78907.836294
490.993220,-7994.224174,0.000000,-73085.510509
490.995813,4145.153275,-9178.553681,-76915.987999
490.998406,4293.194464,-2960.823768,-76609.549800
491.000999,0.000000,4293.194464,-75383.797003
491.003592,2960.823768,5329.482782,-74617.701505
491.006185,-444.123565,3404.947333,-72472.634111
491.008777,-3997.112087,4885.359217,-75996.673402
491.011370,6217.729913,592.164754,-79061.055394
491.013963,3701.029710,-2960.823768,-78754.617194
491.016556,5181.441594,-7105.977043,-75537.016103
491.019148,2664.741391,-3849.070898,-72779.072310
491.021741,-9622.677246,1480.411884,-75690.235202
491.024334,5033.400406,888.247130,-78448.178995
491.026927,-1036.288319,1480.411884,-77528.864398
491.029519,4441.235652,4885.359217,-73545.167808
491.032112,-1628.453072,-2368.659014,-75690.235202
491.034705,8438.347739,-9770.718434,-80746.465489
491.037298,-12583.501014,3256.906145,-75690.235202
491.039890,-26055.249158,7105.977043,-71859.757712
491.042483,17912.983796,-2516.700203,-86722.010374
491.045076,-21762.054695,33457.308578,-68948.594820
491.047669,-4145.153275,12435.459826,-78448.178995
491.050261,12287.418637,-3256.906145,-81512.560987
491.052854,-20429.683999,12583.501014,-70021.128517
491.055447,-2516.700203,-5921.647536,-79827.150892
491.058040,4885.359217,444.123565,-77222.426198
491.060632,-18061.024985,18061.024985,-67876.061123
491.063225,-2220.617826,6661.853478,-77682.083497
491.065818,-2664.741391,7402.059420,-77528.864398
491.068411,-9474.636058,3701.029710,-74770.920605
491.071003,-1628.453072,8438.347739,-71400.100414
491.073596,-3256.906145,7402.059420,-79367.493593
491.076189,-2516.700203,3404.947333,-78601.398095
491.078782,-12731.542202,12731.542202,-71246.881314
491.081374,-12139.377449,11695.253884,-74004.825107
491.083967,-2664.741391,15396.283594,-74311.263306
491.086560,-7254.018232,13175.665768,-70940.443115
491.089153,1036.288319,4589.276840,-77528.864398
491.091745,-3552.988522,2812.782580,-73238.729609
491.094338,-10807.006753,296.082377,-75537.016103
491.096931,-296.082377,4737.318029,-76456.330700
491.099524,-12583.501014,11103.089130,-77222.426198
491.102116,9474.636058,2220.617826,-79520.712692
491.104709,-9918.759623,13027.624579,-71706.538613
491.107302,-1036.288319,4885.359217,-71093.662214
491.109850,24722.878463,-22798.343014,-86109.133975
491.112398,-6365.771101,2516.700203,-71400.100414
491.114946,-7105.977043,-5921.647536,-76149.892501
491.117494,10807.006753,-2664.741391,-77988.521696
491.120042,-11103.089130,17468.860231,-70021.128517
491.122590,3552.988522,4885.359217,-78141.740796
491.125138,12879.583391,-2812.782580,-80593.246390
491.127686,-6957.935855,3256.906145,-71859.757712
491.130234,4441.235652,-9918.759623,-75230.577904
491.132782,4737.318029,-2220.617826,-74617.701505
491.135330,148.041188,3108.864956,-76149.892501
491.137878,740.205942,1332.370696,-76609.549800
491.140426,-888.247130,-1628.453072,-73545.167808
491.142974,-1036.288319,3701.029710,-77375.645298
491.145522,148.041188,3552.988522,-75537.016103
491.148070,5033.400406,-4145.153275,-75843.454302
491.150618,6069.688724,-2812.782580,-72779.072310
491.153166,-4885.359217,-7105.977043,-73698.386908
491.155714,2368.659014,1480.411884,-77222.426198
491.158262,-5033.400406,6365.771101,-74004.825107
491.160810,3404.947333,3701.029710,-78907.836294
491.163358,9326.594869,1184.329507,-73851.606007
491.165906,-4145.153275,1480.411884,-74311.263306
491.168454,-9770.718434,-1924.535449,-76149.892501
491.171002,10362.883188,-3849.070898,-83810.847481
491.173550,-28423.908173,16284.530724,-65424.555529
491.176098,-16876.695478,12879.583391,-71859.757712
491.178646,12879.583391,10510.924376,-79827.150892
491.181194,-15544.324782,22946.384202,-65424.555529
491.183742,-4293.194464,-3552.988522,-79214.274493
491.186290,5033.400406,296.082377,-74158.044206
491.188838,-15248.242405,7254.018232,-69408.252119
491.191386,1628.453072,-296.082377,-77835.302597
491.193934,2664.741391,8438.347739,-78448.178995
491.196482,-17024.736666,18209.066173,-69255.033019
491.199030,592.164754,3404.947333,-74617.701505
491.201578,-3108.864956,-740.205942,-74311.263306
491.204126,740.205942,6513.812290,-73698.386908
491.206674,-1628.453072,2812.782580,-78601.398095
491.209222,-7550.100608,2072.576638,-76609.549800
491.211778,-10807.006753,10658.965565,-74311.263306
491.214335,-12287.418637,13323.706956,-74311.263306
491.216892,1184.329507,9474.636058,-77528.864398
491.219449,-6513.812290,9474.636058,-75996.673402
491.222005,0.000000,2220.617826,-76915.987999
491.224562,-7105.977043,-444.123565,-76149.892501
491.227119,-6069.688724,8142.265362,-75843.454302
491.229675,-14656.077652,12435.459826,-75077.358804
491.232232,11547.212695,3256.906145,-79980.369991
491.234789,-15692.365970,15988.448347,-69714.690318
491.237346,5329.482782,-9326.594869,-80899.684589
491.239902,24278.754898,-6809.894666,-78294.959896
491.242459,-20725.766376,5773.606348,-62973.049936
491.245016,-2072.576638,-7254.018232,-79980.369991
491.247573,6661.853478,-7402.059420,-81052.903688
491.250129,-1628.453072,15544.324782,-71706.538613
491.252686,-8438.347739,8438.347739,-75230.577904
491.255243,16432.571912,-8586.388927,-85343.038477
491.257800,-6513.812290,4293.194464,-71859.757712
491.260356,-2664.741391,-6513.812290,-75230.577904
491.262913,888.247130,1036.288319,-76456.330700
491.265470,-296.082377,6365.771101,-76456.330700
491.268026,-592.164754,7402.059420,-72319.415011
491.270583,740.205942,3256.906145,-71706.538613
491.273140,7550.100608,3701.029710,-75996.673402
491.275697,-3256.906145,7402.059420,-71093.662214
491.278253,2220.617826,-3552.988522,-73238.729609
491.280810,11103.089130,-15396.283594,-81512.560987
491.283367,-8142.265362,5625.565159,-70634.004916
491.285924,-888.247130,3108.864956,-73238.729609
491.288480,2368.659014,5033.400406,-74924.139704
491.291037,7254.018232,5921.647536,-73698.386908
491.293594,-1924.535449,-2072.576638,-77069.207099
491.296151,15100.201217,-11399.171507,-80746.465489
491.298707,-18061.024985,13619.789333,-67569.622924
491.301264,-14804.118840,-2220.617826,-74770.920605
491.303821,18949.272115,2516.700203,-80746.465489
491.306377,-29608.237680,33753.390955,-63739.145434
491.308934,6069.688724,5921.647536,-82278.656485
491.311491,4145.153275,5773.606348,-74311.263306
491.314055,-13027.624579,10214.842000,-72779.072310
491.316619,-11843.295072,1776.494261,-74464.482406
491.319183,10066.800811,-3404.947333,-77682.083497
491.321747,-16728.654289,19985.560434,-64964.898230
491.324310,-6069.688724,9030.512492,-75996.673402
491.326874,-3552.988522,9622.677246,-77682.083497
491.329438,-6513.812290,2516.700203,-75690.235202
491.332002,-592.164754,3849.070898,-74924.139704
491.334566,-444.123565,5921.647536,-78448.178995
491.337130,-8734.430116,5477.523971,-76149.892501
491.339694,-9918.759623,8142.265362,-73391.948708
491.342258,-7550.100608,10066.800811,-76303.111601
491.344822,-2664.741391,9918.759623,-75843.454302
491.347386,-7105.977043,11695.253884,-73238.729609
491.349950,6365.771101,-1184.329507,-78141.740796
491.352513,-10510.924376,1776.494261,-73698.386908
491.355077,-2664.741391,5033.400406,-75537.016103
491.357641,-14952.160028,12435.459826,-76456.330700
491.360205,9178.553681,5477.523971,-79980.369991
491.362769,-11991.336260,15544.324782,-70021.128517
491.365333,5921.647536,-7846.182985,-79214.274493
491.367897,18653.189738,-7698.141797,-77835.302597
491.370461,-14359.995275,4441.235652,-65884.212828
491.373025,12879.583391,-14952.160028,-83044.751983
491.375589,1776.494261,1776.494261,-72319.415011
491.378152,-13175.665768,9326.594869,-72932.291410
491.380716,14211.954086,3108.864956,-75843.454302
491.383280,10955.047942,888.247130,-79061.055394
491.385844,-8734.430116,4589.276840,-71859.757712
491.388408,7105.977043,-10807.006753,-80440.027290
491.390972,-740.205942,-444.123565,-74770.920605
491.393536,-6661.853478,8438.347739,-72166.195912
491.396100,1628.453072,1924.535449,-77222.426198
491.398664,2960.823768,-740.205942,-77375.645298
491.401228,2960.823768,4737.318029,-73851.606007
491.403792,-296.082377,1480.411884,-75843.454302
491.406355,9622.677246,-7846.182985,-79980.369991
491.408919,1628.453072,-6957.935855,-74464.482406
491.411483,-1480.411884,-4145.153275,-76609.549800
491.414047,3108.864956,2072.576638,-75537.016103
491.416615,-3108.864956,7402.059420,-75843.454302
491.419183,10362.883188,0.000000,-76915.987999
491.421751,-2664.741391,1924.535449,-75383.797003
491.424320,-1628.453072,-8438.347739,-77682.083497
491.426888,-148.041188,4293.194464,-76456.330700
491.429456,-29756.278868,11695.253884,-72472.634111
491.432025,15988.448347,-2516.700203,-88560.639569
491.434593,-15544.324782,31680.814318,-67263.184724
491.437161,-12731.542202,15692.365970,-74464.482406
491.439729,12583.501014,-3108.864956,-82585.094684
491.442298,-19097.313304,14656.077652,-70480.785816
491.444866,-8586.388927,-2072.576638,-79061.055394
491.447434,10955.047942,-2368.659014,-79061.055394
491.450003,-17912.983796,17468.860231,-66037.431928
491.452571,-12583.501014,14359.995275,-74004.825107
491.455139,-1480.411884,6809.894666,-76149.892501
491.457707,-2960.823768,-148.041188,-74617.701505
491.460276,-296.082377,7402.059420,-73391.948708
491.462844,-4885.359217,8734.430116,-76456.330700
491.465412,-8438.347739,3404.947333,-80440.027290
491.467981,-6513.812290,10214.842000,-70174.347617
491.470549,-10066.800811,12287.418637,-71553.319513
491.473117,-592.164754,7994.224174,-77375.645298
491.475686,-2072.576638,14063.912898,-74311.263306
491.478254,-2220.617826,-1332.370696,-77528.864398
491.480822,-8142.265362,3256.906145,-74464.482406
491.483390,-5477.523971,7254.018232,-72166.195912
491.485959,-1184.329507,18653.189738,-74924.139704
491.488527,-6069.688724,13323.706956,-70634.004916
491.491095,17468.860231,-9030.512492,-82278.656485
491.493664,-14359.995275,12139.377449,-65118.117330
491.496232,6069.688724,-20429.683999,-83810.847481
491.498800,17468.860231,-11251.130318,-82125.437386
491.501369,-15544.324782,6069.688724,-69101.813920
491.503937,5477.523971,-6661.853478,-79673.931792
491.506505,6069.688724,11399.171507,-72472.634111
491.509073,-9622.677246,9326.594869,-73391.948708
491.511642,15100.201217,-6513.812290,-81665.780087
491.514210,2072.576638,0.000000,-73545.167808
491.516778,-6365.771101,-3997.112087,-73391.948708
491.519350,0.000000,6957.935855,-74158.044206
491.521922,-3849.070898,-1332.370696,-80899.684589
491.524494,592.164754,1776.494261,-76456.330700
491.527067,2812.782580,4441.235652,-72472.634111
491.529639,2072.576638,-3849.070898,-81206.122788
491.532211,7994.224174,-2960.823768,-79367.493593
491.534783,-3701.029710,-7994.224174,-76915.987999
491.537355,5773.606348,-3997.112087,-77835.302597
491.539927,-3404.947333,5033.400406,-72932.291410
491.542499,-3997.112087,4589.276840,-77222.426198
491.545071,9178.553681,4737.318029,-74770.920605
491.547643,-5033.400406,-148.041188,-75690.235202
491.550215,12731.542202,-13471.748144,-80286.808190
491.552787,-12287.418637,12287.418637,-69255.033019
491.555359,-32717.102636,13619.789333,-70940.443115
491.557931,15988.448347,-3552.988522,-88713.858668
491.560503,-18357.107362,30940.608376,-69408.252119
491.563075,-11103.089130,14952.160028,-74770.920605
491.565647,12731.542202,-1332.370696,-78907.836294
491.568219,-17616.901420,13323.706956,-69714.690318
491.570791,-4885.359217,-888.247130,-78907.836294
491.573363,8438.347739,-2664.741391,-79214.274493
491.575936,-16284.530724,13619.789333,-69255.033019
491.578508,-2220.617826,7698.141797,-75230.577904
491.581080,-4441.235652,10510.924376,-76915.987999
491.583652,-2664.741391,148.041188,-75537.016103
491.586224,2368.659014,2516.700203,-71859.757712
491.588796,-5625.565159,6957.935855,-79061.055394
491.591368,-11251.130318,7846.182985,-78294.959896
491.593940,-3849.070898,8290.306550,-73851.606007
491.596512,-9178.553681,11843.295072,-72319.415011
491.599084,-5773.606348,10807.006753,-77528.864398
491.601659,3701.029710,8586.388927,-75383.797003
491.604235,-4589.276840,740.205942,-76609.549800
491.606810,-9622.677246,5921.647536,-74158.044206
491.609386,-12435.459826,6069.688724,-75843.454302
491.611961,4737.318029,16432.571912,-74158.044206
491.614536,-11251.130318,16876.695478,-69714.690318
491.617112,18949.272115,-12583.501014,-82431.875585
491.619687,1628.453072,7994.224174,-67416.403824
491.622263,-19097.313304,3256.906145,-64505.240932
491.624838,14359.995275,-15248.242405,-82125.437386
491.627413,2220.617826,2960.823768,-72625.853210
491.629989,-13471.748144,10955.047942,-71553.319513
491.632564,15396.283594,-444.123565,-79061.055394
491.635140,-6513.812290,12879.583391,-68335.718422
491.637715,-3256.906145,2812.782580,-71706.538613
491.640290,12139.377449,-10214.842000,-82431.875585
491.642866,-4885.359217,-3108.864956,-77682.083497
491.645441,-4145.153275,8290.306550,-71859.757712
491.648017,-1776.494261,3849.070898,-77069.207099
491.650592,2960.823768,-2960.823768,-81206.122788
491.653167,3997.112087,6957.935855,-72012.976812
491.655743,2072.576638,0.000000,-77988.521696
491.658318,9622.677246,-9918.759623,-75843.454302
491.660894,-740.205942,-888.247130,-72779.072310
491.663469,-2072.576638,-2516.700203,-78448.178995
491.666044,1628.453072,3404.947333,-76762.768900
491.668620,8586.388927,5773.606348,-74004.825107
491.671195,-7994.224174,0.000000,-76915.987999
491.673771,13027.624579,-11695.253884,-80899.684589
491.676346,-14656.077652,11991.336260,-67263.184724
491.678921,-15396.283594,-2960.823768,-74311.263306
491.681497,21169.889941,2664.741391,-82891.532884
491.684072,-33161.226202,33901.432144,-66956.746525
491.686648,8586.388927,1036.288319,-86568.791274
491.689223,2072.576638,8438.347739,-71400.100414
491.691798,-22206.178260,10658.965565,-71246.881314
491.694374,5181.441594,-7550.100608,-78141.740796
491.696949,7698.141797,-3256.906145,-77528.864398
491.699525,-14804.118840,13619.789333,-66650.308326
491.702100,-5329.482782,7402.059420,-76303.111601
491.704677,-6957.935855,12583.501014,-77222.426198
491.707253,-6661.853478,3701.029710,-73851.606007
491.709829,-740.205942,4145.153275,-71093.662214
491.712406,-5477.523971,7550.100608,-75690.235202
491.714982,-9918.759623,10807.006753,-75690.235202
491.717559,-5625.565159,6809.894666,-75996.673402
491.720135,-2960.823768,9030.512492,-76303.111601
491.722712,-10510.924376,14804.118840,-70940.443115
491.725288,5181.441594,4589.276840,-75690.235202
491.727865,-3552.988522,888.247130,-77375.645298
491.730441,-6957.935855,8290.306550,-72472.634111
491.733017,-17912.983796,12139.377449,-75383.797003
491.735594,12287.418637,1184.329507,-80133.589091
491.738170,1480.411884,13175.665768,-74311.263306
491.740747,-7846.182985,-444.123565,-75843.454302
491.743323,26499.372724,-18061.024985,-81512.560987
491.745900,-18653.189738,4885.359217,-63126.269035
491.748476,3701.029710,-10510.924376,-80133.589091
491.751053,12435.459826,-3552.988522,-78294.959896
491.753629,-12731.542202,15100.201217,-69867.909418
491.756205,11843.295072,-592.164754,-77682.083497
491.758782,4441.235652,5773.606348,-72166.195912
491.761358,-9178.553681,4589.276840,-72625.853210
491.763935,11547.212695,-13323.706956,-83504.409282
491.766511,1480.411884,2812.782580,-75383.797003
491.769088,-7402.059420,5033.400406,-75996.673402
491.771664,-1776.494261,4441.235652,-73085.510509
491.774241,6957.935855,-1628.453072,-74617.701505
491.776817,6661.853478,-1924.535449,-73238.729609
491.779393,6809.894666,-1924.535449,-73545.167808
491.781970,-2812.782580,-6809.894666,-76609.549800
491.784546,8586.388927,-5181.441594,-79673.931792
491.787123,-5921.647536,3997.112087,-74770.920605
491.789699,-1036.288319,4589.276840,-78141.740796
491.792276,10807.006753,3404.947333,-74617.701505
491.794852,-4589.276840,3404.947333,-75843.454302
491.797429,-4737.318029,-9918.759623,-78754.617194
491.800005,18209.066173,-10214.842000,-83964.066581
491.802581,-29164.114115,26203.290347,-67416.403824
491.805158,-1628.453072,2516.700203,-79214.274493
491.807735,8290.306550,13175.665768,-73698.386908
491.810312,-18505.148550,19541.436869,-65118.117330
491.812889,3849.070898,-7846.182985,-80133.589091
491.815467,1776.494261,6661.853478,-72166.195912
491.818044,-18653.189738,9622.677246,-69408.252119
491.820621,9918.759623,-1480.411884,-76149.892501
491.823198,-4737.318029,10214.842000,-75383.797003
491.825775,-17172.777854,13027.624579,-74924.139704
491.828352,1332.370696,6069.688724,-76149.892501
491.830930,-3404.947333,1776.494261,-73545.167808
491.833507,-6513.812290,8290.306550,-76456.330700
491.836084,-10658.965565,9474.636058,-74770.920605
491.838661,-4441.235652,5625.565159,-76303.111601
491.841238,-7698.141797,13027.624579,-72012.976812
491.843815,-9474.636058,11103.089130,-76149.892501
491.846392,6661.853478,6365.771101,-78141.740796
491.848970,-11251.130318,5181.441594,-72166.195912
491.851547,-5625.565159,6069.688724,-74004.825107
491.854124,-10510.924376,8438.347739,-74924.139704
491.856701,4145.153275,9622.677246,-77069.207099
491.859278,-13175.665768,17172.777854,-66956.746525
491.861855,22206.178260,-10807.006753,-81359.341888
491.864433,1776.494261,7105.977043,-69255.033019
491.867010,-9918.759623,-8882.471304,-73238.729609
491.869587,15100.201217,-15692.365970,-83351.190182
491.872164,592.164754,2368.659014,-73698.386908
491.874741,-8734.430116,10066.800811,-74770.920605
491.877318,10807.006753,2220.617826,-79520.712692
491.879896,-2516.700203,9770.718434,-71553.319513
491.882473,-6957.935855,2812.782580,-70480.785816
491.885050,9178.553681,-9178.553681,-78907.836294
491.887627,-4441.235652,-1036.288319,-77682.083497
491.890204,-2516.700203,8734.430116,-79061.055394
491.892781,-2220.617826,888.247130,-79673.931792
491.895359,2220.617826,2220.617826,-75996.673402
491.897936,5181.441594,3108.864956,-75230.577904
491.900513,4737.318029,-1036.288319,-76149.892501
491.903090,-2072.576638,-1184.329507,-72472.634111
491.905667,2812.782580,-4885.359217,-77682.083497
491.908244,-2516.700203,-1628.453072,-77988.521696
491.910822,4145.153275,7105.977043,-76149.892501
491.913400,8142.265362,0.000000,-74770.920605
491.915977,3108.864956,148.041188,-75996.673402
491.918555,-19689.478057,1628.453072,-72319.415011
491.921133,18653.189738,-11399.171507,-85955.914876
491.923710,-28275.866984,28275.866984,-64352.021832
491.926288,-3256.906145,1924.535449,-82125.437386
491.928866,6365.771101,13619.789333,-75996.673402
491.931443,-17764.942608,19245.354492,-66190.651027
491.934021,4441.235652,-10214.842000,-80746.465489
491.936599,7402.059420,-1924.535449,-79367.493593
491.939176,-14508.036463,9178.553681,-74311.263306
491.941754,-2220.617826,3108.864956,-79061.055394
491.944332,888.247130,4441.235652,-79827.150892
491.946909,-16136.489536,15100.201217,-70480.785816
491.949487,1776.494261,8586.388927,-71093.662214
491.952065,-4589.276840,3997.112087,-73698.386908
491.954642,-2664.741391,3997.112087,-77835.302597
491.957220,-10955.047942,14359.995275,-70480.785816
491.959798,-9918.759623,8290.306550,-74311.263306
491.962375,-3404.947333,9770.718434,-72625.853210
491.964953,-10807.006753,15692.365970,-74004.825107
491.967531,-444.123565,4441.235652,-78141.740796
491.970108,-1184.329507,3404.947333,-75996.673402
491.972686,-6661.853478,5773.606348,-73698.386908
491.975263,-17764.942608,17912.983796,-75383.797003
491.977841,296.082377,1036.288319,-81206.122788
491.980419,16580.613101,2664.741391,-79520.712692
491.982996,-19245.354492,12435.459826,-64658.460031
491.985574,27683.702231,-29164.114115,-88713.858668
491.988152,-5033.400406,1332.370696,-70327.566716
491.990729,-7254.018232,-2368.659014,-75843.454302
491.993307,13175.665768,-9178.553681,-81665.780087
491.995885,-9178.553681,17320.819043,-70480.785816
491.998462,-592.164754,148.041188,-77375.645298
492.001040,15248.242405,-4441.235652,-80746.465489
492.003618,-10510.924376,5773.606348,-70480.785816
492.006195,0.000000,-3997.112087,-74924.139704
492.008773,296.082377,1776.494261,-76762.768900
492.011351,-296.082377,-888.247130,-80133.589091
492.013929,740.205942,1332.370696,-75077.358804
492.016507,8586.388927,-5033.400406,-75537.016103
492.019086,7105.977043,-5329.482782,-78907.836294
492.021664,-5477.523971,-5625.565159,-77222.426198
492.024243,1480.411884,-5773.606348,-78141.740796
492.026821,2072.576638,-2812.782580,-75537.016103
492.029399,-7402.059420,3849.070898,-74311.263306
492.031978,16432.571912,0.000000,-77375.645298
492.034556,-6513.812290,5477.523971,-74770.920605
492.037134,-592.164754,-12435.459826,-81818.999186
492.039713,148.041188,-5625.565159,-81512.560987
492.042291,-27091.537477,20133.601622,-71553.319513
492.044870,1628.453072,444.123565,-85036.600278
492.047448,1184.329507,19689.478057,-72166.195912
492.050026,-19097.313304,18357.107362,-67722.842023
492.052605,9030.512492,-7698.141797,-81052.903688
492.055183,-6661.853478,9474.636058,-71246.881314
492.057761,-15692.365970,10658.965565,-69101.813920
492.060340,10955.047942,-1924.535449,-78448.178995
492.062918,-14359.995275,13915.871710,-72012.976812
492.065496,-9474.636058,6217.729913,-78294.959896
492.068075,-4737.318029,7105.977043,-74617.701505
492.070653,-1332.370696,3849.070898,-70787.224015
492.073232,-4293.194464,8290.306550,-70480.785816
492.075810,-8290.306550,9918.759623,-74617.701505
492.078388,-7402.059420,7105.977043,-77988.521696
492.080967,-7550.100608,8882.471304,-74464.482406
492.083545,-6957.935855,13027.624579,-75230.577904
492.086123,-148.041188,3108.864956,-75383.797003
492.088702,-8290.306550,7698.141797,-72625.853210
492.091280,-11251.130318,6365.771101,-74004.825107
492.093859,-4441.235652,16580.613101,-74158.044206
492.096437,-9918.759623,12139.377449,-72166.195912
492.099015,23390.507767,-8586.388927,-84576.942979
492.101594,-16728.654289,16432.571912,-63892.364533
492.104172,8290.306550,-19097.313304,-84423.723880
492.106750,13027.624579,-9030.512492,-78448.178995
492.109329,-16580.613101,6661.853478,-69255.033019
492.111907,-9326.594869,2664.741391,-76609.549800
492.114486,16284.530724,2368.659014,-80899.684589
492.117063,-14952.160028,13471.748144,-69867.909418
492.119641,6661.853478,-9030.512492,-78601.398095
492.122219,9770.718434,-5329.482782,-74770.920605
492.124797,888.247130,-4885.359217,-74464.482406
492.127375,-1184.329507,2664.741391,-76609.549800
492.129953,-2368.659014,-296.082377,-80746.465489
492.132531,3849.070898,-1776.494261,-77835.302597
492.135109,8734.430116,-1628.453072,-73545.167808
492.137687,6069.688724,-5625.565159,-76456.330700
492.140265,-7550.100608,5181.441594,-72166.195912
492.142843,0.000000,-4145.153275,-75230.577904
492.145421,5033.400406,-2960.823768,-78294.959896
492.147999,4441.235652,7402.059420,-72319.415011
492.150577,-4145.153275,-2220.617826,-77222.426198
492.153155,16284.530724,-8882.471304,-79367.493593
492.155733,-21465.972318,14508.036463,-66497.089226
492.158311,-12287.418637,-4737.318029,-75843.454302
492.160889,14804.118840,7994.224174,-75690.235202
492.163467,-29460.196492,34049.473332,-64658.460031
492.166045,12287.418637,-2368.659014,-89786.392366
492.168623,-1480.411884,9770.718434,-69714.690318
492.171201,-23834.631332,6661.853478,-69561.471218
492.173779,8438.347739,-7105.977043,-83351.190182
492.176357,-9622.677246,10955.047942,-75843.454302
492.178935,-14804.118840,11695.253884,-69101.813920
492.181513,-2664.741391,4441.235652,-75383.797003
492.184091,-4885.359217,5921.647536,-77988.521696
492.186669,-4293.194464,5033.400406,-74158.044206
492.189247,-4737.318029,7698.141797,-71859.757712
492.191825,-6661.853478,7994.224174,-76456.330700
492.194403,-6365.771101,11399.171507,-70174.347617
492.196981,-7254.018232,9178.553681,-73698.386908
492.199559,-148.041188,9918.759623,-79061.055394
492.202137,-4145.153275,8734.430116,-74158.044206
492.204715,-6365.771101,4441.235652,-74158.044206
492.207293,148.041188,5033.400406,-75230.577904
492.209871,-24130.713709,15248.242405,-72779.072310
492.212449,5773.606348,-888.247130,-82738.313784
492.215027,22946.384202,-3552.988522,-83351.190182
492.217604,-17764.942608,11251.130318,-67569.622924
492.220182,16580.613101,-24870.919651,-86415.572174
492.222760,4145.153275,-4589.276840,-75230.577904
492.225338,-14508.036463,1924.535449,-72012.976812
492.227916,11695.253884,-6957.935855,-81665.780087
492.230493,-1184.329507,11399.171507,-73238.729609
492.233071,-2960.823768,6957.935855,-74311.263306
492.235649,9622.677246,-4441.235652,-80899.684589
492.238227,-3256.906145,2368.659014,-71400.100414
492.240805,6809.894666,-7254.018232,-74617.701505
492.243382,444.123565,4293.194464,-73545.167808
492.245960,-6661.853478,6661.853478,-74004.825107
492.248538,2368.659014,-740.205942,-76303.111601
492.251116,11399.171507,-5181.441594,-74464.482406
492.253694,4737.318029,-3552.988522,-76609.549800
492.256271,-4885.359217,4441.235652,-73545.167808
492.258849,2220.617826,-5033.400406,-77069.207099
492.261427,148.041188,-444.123565,-75690.235202
492.264005,1480.411884,6365.771101,-71553.319513
492.266583,3552.988522,-2960.823768,-78448.178995
492.269160,13027.624579,-3404.947333,-79520.712692
492.271738,-25611.125593,13323.706956,-68795.375720
492.274316,-888.247130,-9474.636058,-79367.493593
492.276894,2812.782580,18061.024985,-66956.746525
492.279471,-29164.114115,27535.661042,-66956.746525
492.282049,2960.823768,3701.029710,-83197.971083
492.284627,6809.894666,888.247130,-73851.606007
492.287205,-23982.672521,9326.594869,-67876.061123
492.289783,5181.441594,-6365.771101,-83504.409282
492.292360,-1184.329507,9326.594869,-77375.645298
492.294938,-11251.130318,8882.471304,-74158.044206
492.297516,4145.153275,6069.688724,-76609.549800
492.300094,-7846.182985,9622.677246,-72779.072310
492.302672,-7698.141797,4737.318029,-74617.701505
492.305249,-1628.453072,3552.988522,-77988.521696
492.307827,-7846.182985,13619.789333,-73085.510509
492.310405,-7994.224174,11991.336260,-68335.718422
492.312983,-6809.894666,7105.977043,-74464.482406
492.315561,-3849.070898,13323.706956,-73545.167808
492.318138,-4737.318029,6217.729913,-73238.729609
492.320716,-3404.947333,7105.977043,-71859.757712
492.323293,-6069.688724,5033.400406,-74770.920605
492.325870,-5033.400406,15692.365970,-72625.853210
492.328447,-6365.771101,9178.553681,-72472.634111
492.331024,21910.095883,-3849.070898,-79214.274493
492.333601,-13471.748144,13175.665768,-64352.021832
492.336178,5033.400406,-20281.642811,-82738.313784
492.338755,15840.407159,-9178.553681,-78601.398095
492.341332,-18357.107362,8734.430116,-66037.431928
492.343908,10658.965565,-8734.430116,-80133.589091
492.346485,4737.318029,12139.377449,-72625.853210
492.349062,-9474.636058,7254.018232,-75690.235202
492.351639,5329.482782,-9178.553681,-77988.521696
492.354216,-740.205942,-3404.947333,-74464.482406
492.356793,-444.123565,-3256.906145,-77682.083497
492.359370,-2220.617826,7402.059420,-79061.055394
492.361947,-888.247130,-296.082377,-80899.684589
492.364524,6661.853478,148.041188,-73085.510509
492.367101,7846.182985,-2516.700203,-72472.634111
492.369678,-1184.329507,-1480.411884,-78448.178995
492.372255,2812.782580,1332.370696,-75996.673402
492.374832,-3404.947333,-1628.453072,-73391.948708
492.377409,5625.565159,1184.329507,-74617.701505
492.379986,7994.224174,1480.411884,-75230.577904
492.382562,-2516.700203,5181.441594,-75996.673402
492.385139,-17320.819043,7254.018232,-72319.415011
492.387716,15248.242405,-11695.253884,-83504.409282
492.390293,-25315.043216,29164.114115,-64198.802732
492.392870,-9622.677246,8586.388927,-76303.111601
492.395447,15396.283594,6809.894666,-83044.751983
492.398024,-18653.189738,20429.683999,-66956.746525
492.400601,-592.164754,-11695.253884,-82431.875585
492.403178,5033.400406,2072.576638,-71246.881314
492.405755,-19097.313304,15988.448347,-64658.460031
492.408332,5625.565159,2368.659014,-77375.645298
492.410909,3997.112087,10658.965565,-77222.426198
492.413486,-11251.130318,13175.665768,-70940.443115
492.416063,-2664.741391,3256.906145,-72319.415011
492.418639,-6957.935855,5477.523971,-71553.319513
492.421216,-5921.647536,11251.130318,-76456.330700
492.423793,-7846.182985,13915.871710,-69255.033019
492.426368,-8142.265362,9918.759623,-73085.510509
492.428944,-1480.411884,11991.336260,-73391.948708
492.431520,-6513.812290,5477.523971,-76762.768900
492.434096,-6513.812290,8290.306550,-76762.768900
492.436672,-4145.153275,7698.141797,-72625.853210
492.439248,-11991.336260,20281.642811,-69561.471218
492.441824,-9326.594869,6365.771101,-76762.768900
492.444401,21317.931130,-2664.741391,-84883.381178
492.446977,-17764.942608,13471.748144,-66343.870127
492.449553,18357.107362,-26499.372724,-84117.285680
492.452129,-1628.453072,-6661.853478,-74158.044206
492.454705,-15692.365970,9622.677246,-69101.813920
492.457281,2960.823768,-1332.370696,-78601.398095
492.459857,8586.388927,6661.853478,-77988.521696
492.462433,-9178.553681,7550.100608,-75996.673402
492.465010,5181.441594,-4145.153275,-79520.712692
492.467586,7846.182985,-3997.112087,-75230.577904
492.470162,-1776.494261,-2516.700203,-73391.948708
492.472738,4293.194464,1184.329507,-77682.083497
492.475314,-1184.329507,-444.123565,-81206.122788
492.477890,2516.700203,-3108.864956,-77069.207099
492.480466,9030.512492,-8142.265362,-77528.864398
492.483043,1924.535449,-2664.741391,-77069.207099
492.485619,-2072.576638,740.205942,-74617.701505
492.488195,-7550.100608,-1628.453072,-74770.920605
492.490771,9178.553681,-444.123565,-78294.959896
492.493347,1332.370696,-1480.411884,-75843.454302
492.495923,9918.759623,0.000000,-78294.959896
492.498499,-19985.560434,11547.212695,-69867.909418
492.501075,6513.812290,-8882.471304,-83504.409282
492.503652,-14656.077652,26351.331535,-65424.555529
492.506228,-28127.825796,31088.649564,-64505.240932
492.508804,11399.171507,-296.082377,-89479.954166
492.511380,-4293.194464,9326.594869,-72166.195912
492.513956,-19393.395680,0.000000,-75077.358804
492.516532,5921.647536,-7698.141797,-80899.684589
492.519108,-9030.512492,14063.912898,-71706.538613
492.521684,-10066.800811,7846.182985,-76915.987999
492.524261,6365.771101,7994.224174,-76456.330700
492.526837,-6365.771101,3404.947333,-75690.235202
492.529375,-7105.977043,6957.935855,-71246.881314
492.531914,-3701.029710,6809.894666,-75077.358804
492.534452,-7254.018232,8438.347739,-74464.482406
492.536991,-9178.553681,11991.336260,-71246.881314
492.539530,-3701.029710,9326.594869,-76149.892501
492.542068,2368.659014,6069.688724,-77528.864398
492.544607,-11547.212695,8142.265362,-72779.072310
492.547145,-2960.823768,4737.318029,-74770.920605
492.549684,-16284.530724,9178.553681,-74770.920605
492.552222,7846.182985,3701.029710,-77069.207099
492.554761,-6513.812290,15840.407159,-74464.482406
492.557300,3108.864956,-4737.318029,-80746.465489
492.559838,27091.537477,-26351.331535,-87334.886772
492.562377,-12435.459826,888.247130,-68488.937521
492.564915,-6957.935855,-4589.276840,-76915.987999
492.567454,11695.253884,-1332.370696,-76762.768900
492.569992,-6957.935855,16284.530724,-69255.033019
492.572531,0.000000,5477.523971,-76915.987999
492.575070,8438.347739,888.247130,-77375.645298
492.577608,-1036.288319,3256.906145,-71093.662214
492.580147,6957.935855,-5329.482782,-74311.263306
492.582685,888.247130,3701.029710,-72166.195912
492.585224,-1776.494261,8142.265362,-71706.538613
492.587762,8586.388927,-2664.741391,-75537.016103
492.590301,3849.070898,-8142.265362,-76762.768900
492.592840,-2072.576638,3404.947333,-75077.358804
492.595378,-296.082377,-2960.823768,-77069.207099
492.597917,1332.370696,-3997.112087,-77528.864398
492.600455,3108.864956,3108.864956,-74924.139704
492.602994,3552.988522,-1036.288319,-74311.263306
492.605532,8290.306550,1776.494261,-76149.892501
492.608071,-18949.272115,9918.759623,-70480.785816
492.610610,14211.954086,-9918.759623,-86109.133975
492.613148,-28719.990550,31532.773129,-61747.297139
492.615687,-7254.018232,6069.688724,-78294.959896
492.618225,12139.377449,11103.089130,-77069.207099
492.620764,-17024.736666,19393.395680,-70480.785816
492.623302,3256.906145,-13767.830521,-83964.066581
492.625841,3404.947333,5625.565159,-68642.156621
492.628380,-16580.613101,15544.324782,-69101.813920
492.630925,-3404.947333,6809.894666,-79367.493593
492.633470,5477.523971,10066.800811,-77682.083497
492.636015,-4885.359217,1184.329507,-76762.768900
492.638560,0.000000,3108.864956,-76303.111601
492.641105,-5329.482782,2960.823768,-79061.055394
492.643650,-10807.006753,11103.089130,-75230.577904
492.646195,-8142.265362,9030.512492,-70940.443115
492.648741,-7994.224174,11843.295072,-74464.482406
492.651286,-1184.329507,7698.141797,-75077.358804
492.653831,-4737.318029,2220.617826,-78601.398095
492.656376,-3849.070898,7105.977043,-76609.549800
492.658921,-17912.983796,8734.430116,-73085.510509
492.661466,9030.512492,-3552.988522,-81818.999186
492.664011,9918.759623,11695.253884,-75690.235202
492.666556,-13767.830521,4441.235652,-73391.948708
492.669101,28571.949361,-22206.178260,-87488.105872
492.671647,-16580.613101,2812.782580,-66190.651027
492.674192,-4441.235652,-8882.471304,-79827.150892
492.676737,12583.501014,-1480.411884,-75843.454302
492.679282,-6809.894666,16580.613101,-68335.718422
492.681827,4885.359217,6513.812290,-74464.482406
492.684372,4589.276840,2664.741391,-77222.426198
492.686917,-9030.512492,1776.494261,-73085.510509
492.689462,5033.400406,-6217.729913,-78448.178995
492.692008,-740.205942,5921.647536,-73085.510509
492.694553,-3404.947333,444.123565,-80286.808190
492.697098,1332.370696,-5033.400406,-77528.864398
492.699643,7550.100608,-10066.800811,-80286.808190
492.702188,2960.823768,1332.370696,-75383.797003
492.704733,-296.082377,-2220.617826,-74924.139704
492.707278,-2220.617826,-3701.029710,-77528.864398
492.709823,6809.894666,444.123565,-77069.207099
492.712368,-444.123565,-3701.029710,-75690.235202
492.714914,12287.418637,-592.164754,-76303.111601
492.717459,-22206.178260,13323.706956,-69867.909418
492.720004,7698.141797,-11103.089130,-84270.504780
492.722549,-10807.006753,25907.207970,-62819.830836
492.725094,-19097.313304,16432.571912,-70174.347617
492.727639,13915.871710,4441.235652,-83197.971083
492.730184,-12435.459826,17764.942608,-75230.577904
492.732735,-20873.807564,1776.494261,-75537.016103
492.735286,6217.729913,-7994.224174,-83044.751983
492.737836,-10955.047942,14359.995275,-72779.072310
492.740387,-9326.594869,9326.594869,-76149.892501
492.742938,3997.112087,6809.894666,-76456.330700
492.745489,-5181.441594,1332.370696,-76609.549800
492.748040,-5033.400406,4737.318029,-73545.167808
492.750590,-6217.729913,2960.823768,-76609.549800
492.753141,-9326.594869,7994.224174,-74617.701505
492.755692,-12879.583391,13323.706956,-70327.566716
492.758243,-296.082377,5181.441594,-78448.178995
492.760793,3849.070898,5625.565159,-75077.358804
492.763344,-15100.201217,10362.883188,-72779.072310
492.765895,-10955.047942,3701.029710,-76762.768900
492.768446,2220.617826,11991.336260,-76609.549800
492.770996,-11991.336260,15544.324782,-67876.061123
492.773547,24426.796086,-6217.729913,-82738.313784
492.776098,-11399.171507,16432.571912,-66343.870127
492.778649,2072.576638,-21762.054695,-83964.066581
492.781199,9622.677246,-13471.748144,-78907.836294
492.783750,-16284.530724,3108.864956,-68335.718422
492.786301,11251.130318,-4145.153275,-77528.864398
492.788852,7105.977043,9622.677246,-74617.701505
492.791402,-7550.100608,7550.100608,-76609.549800
492.793953,8142.265362,-7105.977043,-81512.560987
492.796504,-3256.906145,-3849.070898,-74004.825107
492.799055,-3849.070898,0.000000,-75077.358804
492.801605,2072.576638,8290.306550,-74770.920605
492.804156,7105.977043,-3701.029710,-78294.959896
492.806707,1332.370696,-3404.947333,-71400.100414
492.809258,3849.070898,-1924.535449,-69561.471218
492.811808,-888.247130,2368.659014,-70940.443115
492.814364,4885.359217,-3997.112087,-75843.454302
492.816919,-4441.235652,5625.565159,-73238.729609
492.819474,15100.201217,-2072.576638,-74924.139704
492.822030,-2368.659014,6513.812290,-72012.976812
492.824585,-7402.059420,-740.205942,-77222.426198
492.827141,7402.059420,-1184.329507,-83504.409282
492.829696,-30200.402434,21614.013506,-68029.280222
492.832251,3849.070898,1480.411884,-80593.246390
492.834807,14359.995275,6513.812290,-81052.903688
492.837362,-12879.583391,18949.272115,-68948.594820
492.839917,740.205942,-10955.047942,-80899.684589
492.842473,2516.700203,2812.782580,-71706.538613
492.845028,-19245.354492,12583.501014,-66650.308326
492.847583,3997.112087,2812.782580,-79214.274493
492.850139,-2664.741391,11843.295072,-77988.521696
492.852694,-4737.318029,2516.700203,-77222.426198
492.855249,2072.576638,740.205942,-76609.549800
492.857805,-10510.924376,6661.853478,-75843.454302
492.860360,-14952.160028,13027.624579,-74464.482406
492.862915,-9474.636058,8142.265362,-75843.454302
492.865471,-2368.659014,8882.471304,-77375.645298
492.868026,-444.123565,9030.512492,-73698.386908
492.870582,-11399.171507,7994.224174,-73851.606007
492.873137,-4293.194464,592.164754,-79214.274493
492.875692,-9030.512492,17912.983796,-71400.100414
492.878248,-8882.471304,8142.265362,-73851.606007
492.880803,25315.043216,-3701.029710,-82431.875585
492.883358,-20133.601622,17172.777854,-65730.993728
492.885914,16136.489536,-26203.290347,-87947.763170
492.888469,4885.359217,-15396.283594,-79367.493593
492.891024,-18505.148550,-1924.535449,-70174.347617
492.893580,15248.242405,-7105.977043,-79061.055394
492.896135,6661.853478,7254.018232,-76762.768900
492.898690,-6957.935855,8586.388927,-75537.016103
492.901246,2516.700203,-5921.647536,-78294.959896
492.903801,148.041188,-1924.535449,-74311.263306
492.906357,-4145.153275,1184.329507,-74158.044206
492.908912,3552.988522,6661.853478,-79214.274493
492.911467,8882.471304,444.123565,-79980.369991
492.914023,-7550.100608,148.041188,-71706.538613
492.916581,8438.347739,-6365.771101,-75230.577904
492.919139,1628.453072,3701.029710,-72166.195912
492.921697,-3108.864956,4145.153275,-72779.072310
492.924255,6069.688724,-740.205942,-76609.549800
492.926813,2072.576638,-4885.359217,-78294.959896
492.929371,5625.565159,-1332.370696,-77222.426198
492.931930,-18061.024985,13767.830521,-71706.538613
492.934488,3552.988522,-2812.782580,-79061.055394
492.937046,9770.718434,8438.347739,-77835.302597
492.939604,-21910.095883,27979.784608,-66650.308326
492.942162,5329.482782,3256.906145,-83964.066581
492.944720,3108.864956,3701.029710,-74464.482406
492.947278,-19097.313304,3849.070898,-72932.291410
492.949836,1036.288319,-9326.594869,-84576.942979
492.952395,-6661.853478,10658.965565,-74617.701505
492.954953,-9474.636058,10807.006753,-74004.825107
492.957511,2812.782580,9474.636058,-74924.139704
492.960069,-6217.729913,3997.112087,-71553.319513
492.962627,-6661.853478,4293.194464,-72472.634111
492.965185,-4589.276840,7254.018232,-76303.111601
492.967743,-13175.665768,10510.924376,-73391.948708
492.970302,-3997.112087,12583.501014,-74924.139704
492.972860,1776.494261,5033.400406,-77222.426198
492.975418,-4589.276840,8586.388927,-77682.083497
492.977976,-8290.306550,7105.977043,-75690.235202
492.980534,-23242.466579,11103.089130,-74924.139704
492.983092,10658.965565,-2960.823768,-80593.246390
492.985650,5181.441594,11843.295072,-73851.606007
492.988208,-8882.471304,4885.359217,-73545.167808
492.990767,30496.484810,-16432.571912,-83964.066581
492.993325,-17320.819043,3552.988522,-63126.269035
492.995883,-1628.453072,-11547.212695,-75996.673402
492.998441,12583.501014,-592.164754,-71706.538613
493.000999,296.082377,13175.665768,-69408.252119
493.003557,5329.482782,8586.388927,-75383.797003
493.006115,6365.771101,296.082377,-78448.178995
493.008674,-8734.430116,-1776.494261,-75077.358804
493.011232,1924.535449,-7698.141797,-79827.150892
493.013790,1184.329507,4885.359217,-78601.398095
493.016348,-2812.782580,5033.400406,-78448.178995
493.018909,11991.336260,-8438.347739,-79214.274493
493.021469,2664.741391,-6069.688724,-76762.768900
493.024030,-3701.029710,1628.453072,-74158.044206
493.026591,-148.041188,-3701.029710,-77375.645298
493.029151,5033.400406,2072.576638,-77682.083497
493.031712,4441.235652,-1332.370696,-74770.920605
493.034273,4441.235652,3552.988522,-72932.291410
493.036833,-10807.006753,3997.112087,-73851.606007
493.039394,5773.606348,-3849.070898,-80746.465489
493.041955,-13323.706956,24574.837274,-65271.336430
493.044516,-19245.354492,16580.613101,-68642.156621
493.047076,13767.830521,5625.565159,-79980.369991
493.049637,-11547.212695,19097.313304,-68335.718422
493.052198,-1924.535449,-8586.388927,-81512.560987
493.054758,1184.329507,1480.411884,-72472.634111
493.057319,-18357.107362,11695.253884,-66650.308326
493.059880,-1480.411884,4145.153275,-77835.302597
493.062440,-2072.576638,11695.253884,-78448.178995
493.065001,-2368.659014,3552.988522,-77988.521696
493.067562,0.000000,3849.070898,-74770.920605
493.070122,-9326.594869,6513.812290,-75077.358804
493.072683,-12435.459826,15100.201217,-74004.825107
493.075244,-3701.029710,14508.036463,-69561.471218
493.077804,0.000000,6069.688724,-74158.044206
493.080365,-592.164754,6661.853478,-77222.426198
493.082926,-12879.583391,9622.677246,-75077.358804
493.085487,-16284.530724,6069.688724,-79061.055394
493.088047,7698.141797,444.123565,-77835.302597
493.090608,-3997.112087,14359.995275,-71093.662214
493.093169,2664.741391,-1628.453072,-78294.959896
493.095729,24130.713709,-7846.182985,-82125.437386
493.098290,-20133.601622,3404.947333,-65884.212828
493.100851,3701.029710,-15988.448347,-78907.836294
493.103411,2664.741391,1184.329507,-71400.100414
493.105972,-1924.535449,9622.677246,-73391.948708
493.108533,2960.823768,6217.729913,-75843.454302
493.111093,1480.411884,1776.494261,-77682.083497
493.113654,-5921.647536,-2368.659014,-74004.825107
493.116215,1776.494261,-1480.411884,-73391.948708
493.118775,-2960.823768,8438.347739,-72779.072310
493.121338,3404.947333,4589.276840,-76762.768900
493.123901,8586.388927,-5181.441594,-78601.398095
493.126464,1628.453072,-2220.617826,-75383.797003
493.129027,-296.082377,1480.411884,-72779.072310
493.131590,1036.288319,-5033.400406,-77835.302597
493.134153,-1332.370696,5921.647536,-73238.729609
493.136716,7254.018232,-4885.359217,-77528.864398
493.139279,4293.194464,3256.906145,-73545.167808
493.141841,-18949.272115,16728.654289,-68335.718422
493.144404,444.123565,-2368.659014,-77988.521696
493.146967,-1184.329507,18653.189738,-67722.842023
493.149530,-25315.043216,23242.466579,-64198.802732
493.152093,13323.706956,148.041188,-85036.600278
493.154656,-4885.359217,16728.654289,-69714.690318
493.157219,-11695.253884,-3701.029710,-77375.645298
493.159782,3552.988522,-2664.741391,-75843.454302
493.162344,-17468.860231,13619.789333,-66956.746525
493.164907,-8142.265362,7846.182985,-77222.426198
493.167470,-888.247130,13027.624579,-78294.959896
493.170033,-1332.370696,3256.906145,-77222.426198
493.172596,-1776.494261,7994.224174,-72319.415011
493.175159,-12879.583391,8142.265362,-75690.235202
493.177722,-10955.047942,10362.883188,-76456.330700
493.180285,-148.041188,10066.800811,-74158.044206
493.182847,592.164754,4885.359217,-76303.111601
493.185410,-7846.182985,10658.965565,-74924.139704
493.187973,-5329.482782,5773.606348,-74924.139704
493.190536,-18209.066173,16432.571912,-72932.291410
493.193099,296.082377,444.123565,-79214.274493
493.195662,20873.807564,1332.370696,-79673.931792
493.198225,-14211.954086,12139.377449,-69714.690318
493.200788,21465.972318,-23094.425390,-86875.229473
493.203351,-4589.276840,-5181.441594,-73545.167808
493.205913,-11843.295072,-3997.112087,-72319.415011
493.208476,12879.583391,-6809.894666,-79367.493593
493.211039,8438.347739,6069.688724,-77375.645298
493.213602,-4885.359217,8438.347739,-75230.577904
493.216165,1924.535449,-4441.235652,-78141.740796
493.218728,296.082377,-5181.441594,-74158.044206
493.221291,2960.823768,-2516.700203,-75230.577904
493.223854,3849.070898,6069.688724,-77988.521696
493.226418,5181.441594,-4885.359217,-79980.369991
493.228982,3997.112087,-3997.112087,-73238.729609
493.231546,4293.194464,-7105.977043,-75077.358804
493.234109,1628.453072,-6365.771101,-78141.740796
493.236673,444.123565,1480.411884,-74617.701505
493.239237,11251.130318,-3997.112087,-77835.302597
493.241800,-4145.153275,-2368.659014,-78907.836294
493.244364,-12583.501014,1776.494261,-75383.797003
493.246928,7105.977043,2664.741391,-83964.066581
493.249491,-34197.514520,25315.043216,-70021.128517
493.252055,4589.276840,-2072.576638,-85343.038477
493.254619,-2072.576638,22058.137072,-69408.252119
493.257183,-16728.654289,18357.107362,-67876.061123
493.259746,15840.407159,-6809.894666,-81972.218286
493.262310,-12731.542202,8290.306550,-72472.634111
493.264874,-16876.695478,2960.823768,-74924.139704
493.267437,5625.565159,1480.411884,-77528.864398
493.270001,-11103.089130,16284.530724,-69101.813920
493.272565,-6661.853478,7550.100608,-73391.948708
493.275129,444.123565,3256.906145,-75996.673402
493.277692,-11103.089130,6365.771101,-78141.740796
493.280256,-14063.912898,11547.212695,-74464.482406
493.282820,-5181.441594,8882.471304,-75843.454302
493.285383,-444.123565,7254.018232,-76609.549800
493.287947,-1628.453072,8882.471304,-74617.701505
493.290511,-8734.430116,9030.512492,-73085.510509
493.293074,-19689.478057,11251.130318,-74004.825107
493.295638,3849.070898,-2664.741391,-78141.740796
493.298202,9622.677246,7402.059420,-75383.797003
493.300766,-6217.729913,2516.700203,-71706.538613
493.303329,26647.413912,-13767.830521,-82738.313784
493.305893,-17468.860231,4441.235652,-65577.774629
493.308457,-2220.617826,-13175.665768,-79980.369991
493.311020,12583.501014,-2220.617826,-75690.235202
493.313584,3256.906145,9770.718434,-71246.881314
493.316148,-1036.288319,7846.182985,-76303.111601
493.318712,6217.729913,-1036.288319,-80133.589091
493.321275,-5477.523971,-1776.494261,-73698.386908
493.323839,-296.082377,-2516.700203,-72932.291410
493.326403,148.041188,6365.771101,-75690.235202
493.328968,7698.141797,-888.247130,-79520.712692
493.331532,1480.411884,-4293.194464,-74924.139704
493.334097,4145.153275,-5477.523971,-74617.701505
493.336662,1480.411884,-2368.659014,-73545.167808
493.339227,888.247130,3849.070898,-74158.044206
493.341792,10658.965565,-3256.906145,-75690.235202
493.344357,2220.617826,1332.370696,-74464.482406
493.346921,-9178.553681,0.000000,-75230.577904
493.349486,5921.647536,3849.070898,-81359.341888
493.352051,-23982.672521,31088.649564,-64352.021832
493.354616,-10807.006753,8438.347739,-75690.235202
493.357181,8586.388927,5033.400406,-76609.549800
493.359745,-13619.789333,19097.313304,-64505.240932
493.362310,5033.400406,-10066.800811,-82585.094684
493.364875,-2664.741391,6365.771101,-71859.757712
493.367440,-19985.560434,8290.306550,-69408.252119
493.370005,0.000000,1776.494261,-76456.330700
493.372570,-888.247130,9918.759623,-75996.673402
493.375134,-2812.782580,6661.853478,-75230.577904
493.377699,444.123565,2368.659014,-76762.768900
493.380264,-8438.347739,6809.894666,-76303.111601
493.382829,-16876.695478,17320.819043,-66497.089226
493.385394,-1776.494261,7550.100608,-71553.319513
493.387958,2960.823768,3701.029710,-79520.712692
493.390523,-4293.194464,14952.160028,-74004.825107
493.393088,-17764.942608,7698.141797,-73085.510509
493.395653,0.000000,12139.377449,-76609.549800
493.398218,-16728.654289,11251.130318,-69867.909418
493.400783,29904.320057,-10214.842000,-81972.218286
493.403347,-9326.594869,18653.189738,-64658.460031
493.405912,-1332.370696,-15544.324782,-83964.066581
493.408477,13915.871710,-15692.365970,-83810.847481
493.411042,-13027.624579,2072.576638,-69867.909418
493.413607,4589.276840,-5329.482782,-77375.645298
493.416171,15544.324782,5477.523971,-75077.358804
493.418736,-7254.018232,8438.347739,-77682.083497
493.421301,-2664.741391,-1184.329507,-74617.701505
493.423866,9178.553681,-6957.935855,-77069.207099
493.426431,-1776.494261,5329.482782,-73238.729609
493.428997,3404.947333,5625.565159,-74770.920605
493.431562,10066.800811,-4737.318029,-77835.302597
493.434128,-1628.453072,-888.247130,-72472.634111
493.436694,1924.535449,-7254.018232,-74004.825107
493.439260,296.082377,-5329.482782,-78754.617194
493.441825,2812.782580,3849.070898,-74464.482406
493.444391,740.205942,-5921.647536,-76915.987999
493.446957,14211.954086,-1924.535449,-76762.768900
493.449523,-23834.631332,16876.695478,-66956.746525
493.452088,7550.100608,-2220.617826,-80746.465489
493.454654,9030.512492,9622.677246,-80593.246390
493.457220,-23686.590144,27683.702231,-65424.555529
493.459786,7698.141797,-148.041188,-83197.971083
493.462352,2368.659014,4737.318029,-73851.606007
493.464917,-17616.901420,4737.318029,-72472.634111
493.467483,1480.411884,-7698.141797,-82585.094684
493.470049,-10214.842000,10214.842000,-74464.482406
493.472615,-11251.130318,10658.965565,-74770.920605
493.475180,2368.659014,8290.306550,-75537.016103
493.477746,-2220.617826,-148.041188,-75230.577904
493.480312,-11547.212695,9622.677246,-71246.881314
493.482878,-9622.677246,6069.688724,-80899.684589
493.485443,-7402.059420,8438.347739,-80899.684589
493.488009,-444.123565,8290.306550,-73698.386908
493.490575,-5773.606348,10658.965565,-73545.167808
493.493141,-888.247130,4885.359217,-80593.246390
493.495706,-28275.866984,15988.448347,-72779.072310
493.498272,2368.659014,-6365.771101,-79367.493593
493.500838,17764.942608,3997.112087,-76762.768900
493.503404,-14804.118840,7105.977043,-68795.375720
493.505970,33161.226202,-22502.260637,-89020.296868
493.508535,-15692.365970,5181.441594,-67263.184724
493.511101,-11251.130318,-9030.512492,-77528.864398
493.513667,16432.571912,-5181.441594,-75077.358804
493.516233,740.205942,13175.665768,-70940.443115
493.518798,3404.947333,3997.112087,-78294.959896
493.521364,6069.688724,2960.823768,-78601.398095
493.523930,-6069.688724,-2812.782580,-75383.797003
493.526496,740.205942,-444.123565,-72779.072310
493.529061,5477.523971,3552.988522,-77069.207099
493.531594,5181.441594,-444.123565,-78294.959896
493.534126,592.164754,-444.123565,-74924.139704
493.536659,3997.112087,-10658.965565,-79214.274493
493.539191,1776.494261,-2072.576638,-72472.634111
493.541724,-1480.411884,5773.606348,-71093.662214
493.544256,11103.089130,-7402.059420,-79520.712692
493.546788,5477.523971,3997.112087,-75690.235202
493.549321,-19985.560434,11251.130318,-67416.403824
493.551853,14359.995275,-2220.617826,-83504.409282
493.554386,-34641.638086,34197.514520,-63739.145434
493.556918,-25463.084405,22502.260637,-66803.527426
493.559451,13471.748144,-4589.276840,-84883.381178
493.561983,-2664.741391,13915.871710,-68795.375720
493.564515,-15544.324782,-1332.370696,-76456.330700
493.567048,6069.688724,-3108.864956,-78448.178995
493.569580,-16876.695478,13915.871710,-68795.375720
493.572113,-2812.782580,8734.430116,-75077.358804
493.574645,2960.823768,7105.977043,-77988.521696
493.577178,-4293.194464,888.247130,-75690.235202
493.579710,-8142.265362,9178.553681,-69867.909418
493.582242,-10510.924376,5773.606348,-77528.864398
493.584775,-8142.265362,7994.224174,-79367.493593
493.587307,-740.205942,4145.153275,-76915.987999
493.589840,-1924.535449,8438.347739,-76303.111601
493.592372,-740.205942,9030.512492,-76915.987999
493.594905,-26647.413912,15988.448347,-74617.701505
493.597437,3701.029710,-4885.359217,-81052.903688
493.599969,15100.201217,4589.276840,-75230.577904
493.602502,-13915.871710,7550.100608,-68335.718422
493.605034,31384.731941,-22354.219448,-89173.515967
493.607567,-14359.995275,3701.029710,-68335.718422
493.610099,-5477.523971,-8734.430116,-76762.768900
493.612632,16284.530724,-2960.823768,-72779.072310
493.615164,-2072.576638,13323.706956,-68642.156621
493.617696,3256.906145,6661.853478,-74924.139704
493.620229,8142.265362,3849.070898,-77835.302597
493.622761,-6957.935855,-2072.576638,-75690.235202
493.625294,-888.247130,1924.535449,-72779.072310
493.627826,3997.112087,6809.894666,-75996.673402
493.630358,7994.224174,-740.205942,-77835.302597
493.632898,4589.276840,296.082377,-72012.976812
493.635437,2072.576638,-5773.606348,-73238.729609
493.637977,-2368.659014,-444.123565,-73085.510509
493.640516,2368.659014,1184.329507,-74004.825107
493.643056,2220.617826,-3997.112087,-78448.178995
493.645595,15988.448347,-1628.453072,-79061.055394
493.648135,-23834.631332,19097.313304,-66037.431928
493.650674,3997.112087,-2072.576638,-80286.808190
493.653214,-9178.553681,24426.796086,-67109.965625
493.655753,-25018.960840,21762.054695,-69255.033019
493.658293,4441.235652,1924.535449,-80133.589091
493.660832,7254.018232,2516.700203,-74464.482406
493.663372,-18505.148550,6661.853478,-70327.566716
493.665911,2812.782580,-6365.771101,-81972.218286
493.668450,-9622.677246,10066.800811,-74770.920605
493.670990,-12731.542202,15100.201217,-72166.195912
493.673529,0.000000,10510.924376,-72932.291410
493.676069,-2960.823768,2812.782580,-75230.577904
493.678608,-12731.542202,11547.212695,-74617.701505
493.681148,-11103.089130,11103.089130,-80746.465489
493.683687,-7846.182985,10510.924376,-77222.426198
493.686227,-1480.411884,8438.347739,-72625.853210
493.688766,-7994.224174,12287.418637,-73238.729609
493.691306,-4293.194464,8438.347739,-75690.235202
493.693845,-4293.194464,15100.201217,-72779.072310
493.696385,-15988.448347,10658.965565,-67722.842023
493.698924,29460.196492,-10658.965565,-82125.437386
493.701463,-9030.512492,14804.118840,-67416.403824
493.704003,2368.659014,-14359.995275,-84270.504780
493.706542,8882.471304,-12435.459826,-80286.808190
493.709082,-14359.995275,2368.659014,-69408.252119
493.711621,5033.400406,-3256.906145,-78907.836294
493.714161,12287.418637,4885.359217,-79061.055394
493.716700,-3552.988522,8142.265362,-76915.987999
493.719240,3108.864956,-2960.823768,-80133.589091
493.721779,296.082377,-7402.059420,-76456.330700
493.724319,-1924.535449,3404.947333,-71553.319513
493.726858,3256.906145,6957.935855,-74770.920605
493.729398,4293.194464,-3997.112087,-77222.426198
493.731937,5477.523971,-6069.688724,-76609.549800
493.734482,1332.370696,-7254.018232,-76149.892501
493.737028,-3997.112087,444.123565,-75843.454302
493.739573,14211.954086,-3256.906145,-76303.111601
493.742119,-4145.153275,4885.359217,-72779.072310
493.744664,-2664.741391,592.164754,-75537.016103
493.747210,2368.659014,6661.853478,-77988.521696
493.749755,-33457.308578,24278.754898,-71859.757712
493.752300,5329.482782,-3256.906145,-87641.324971
493.754846,11103.089130,5329.482782,-78754.617194
493.757391,-12583.501014,17320.819043,-67109.965625
493.759937,3849.070898,-6217.729913,-79214.274493
493.762482,740.205942,4589.276840,-73545.167808
493.765028,-20281.642811,13175.665768,-70480.785816
493.767573,-6217.729913,10214.842000,-76609.549800
493.770118,-740.205942,11547.212695,-75230.577904
493.772664,-5625.565159,1036.288319,-76915.987999
493.775209,-13471.748144,13175.665768,-70940.443115
493.777755,-8586.388927,9622.677246,-81512.560987
493.780300,-7105.977043,10658.965565,-78294.959896
493.782846,-2072.576638,7254.018232,-74311.263306
493.785391,-4441.235652,13175.665768,-72012.976812
493.787936,-4737.318029,10658.965565,-72779.072310
493.790482,-17764.942608,14656.077652,-75383.797003
493.793027,-4441.235652,-1480.411884,-81512.560987
493.795573,20133.601622,-4293.194464,-81206.122788
493.798118,-12731.542202,13323.706956,-62819.830836
493.800664,-740.205942,-14656.077652,-84270.504780
493.803209,13323.706956,-13619.789333,-82431.875585
493.805754,-15100.201217,4293.194464,-68335.718422
493.808300,5921.647536,-1924.535449,-77988.521696
493.810845,11991.336260,4145.153275,-76915.987999
493.813391,-4441.235652,8734.430116,-75230.577904
493.815936,5033.400406,-3404.947333,-78448.178995
493.818482,-2368.659014,-6661.853478,-74924.139704
493.821027,-1332.370696,2812.782580,-70634.004916
493.823572,4589.276840,5625.565159,-73698.386908
493.826118,10510.924376,-5477.523971,-78601.398095
493.828663,10066.800811,-7698.141797,-75230.577904
493.831209,296.082377,-7846.182985,-74617.701505
493.833754,296.082377,-2812.782580,-74770.920605
493.836305,9770.718434,-5181.441594,-76762.768900
493.838856,2812.782580,5329.482782,-71859.757712
493.841407,-11103.089130,11695.253884,-72012.976812
493.843957,6661.853478,2960.823768,-81359.341888
493.846508,-27387.619854,30200.402434,-68182.499322
493.849059,-12731.542202,7698.141797,-77528.864398
493.851610,12583.501014,5921.647536,-77222.426198
493.854161,-16136.489536,18949.272115,-63739.145434
493.856711,7254.018232,-7994.224174,-81052.903688
493.859262,-1480.411884,4145.153275,-74770.920605
493.861813,-17024.736666,9178.553681,-70174.347617
493.864364,3108.864956,6661.853478,-75383.797003
493.866915,-2812.782580,8142.265362,-77682.083497
493.869465,-4737.318029,2516.700203,-78141.740796
493.872016,-15988.448347,15248.242405,-69867.909418
493.874567,-5625.565159,8586.388927,-80899.684589
493.877118,-6069.688724,10510.924376,-77069.207099
493.879668,-1924.535449,7105.977043,-73851.606007
493.882219,-7402.059420,12435.459826,-72625.853210
493.884770,-8438.347739,9622.677246,-74311.263306
493.887321,-7550.100608,14359.995275,-76303.111601
493.889872,-11251.130318,6217.729913,-75230.577904
493.892422,23982.672521,-9030.512492,-80899.684589
493.894973,-9178.553681,14211.954086,-64964.898230
493.897524,5033.400406,-18653.189738,-83964.066581
493.900075,8734.430116,-10510.924376,-80133.589091
493.902626,-15100.201217,2664.741391,-70480.785816
493.905176,10658.965565,1332.370696,-76762.768900
493.907727,11991.336260,2664.741391,-79367.493593
493.910278,-5625.565159,8882.471304,-76609.549800
493.912829,-3404.947333,296.082377,-75383.797003
493.915380,3849.070898,-3849.070898,-75690.235202
493.917930,-2664.741391,3404.947333,-75843.454302
493.920481,9178.553681,5477.523971,-77528.864398
493.923032,4293.194464,-5033.400406,-77988.521696
493.925583,10214.842000,-6809.894666,-74770.920605
493.928134,-5181.441594,-1776.494261,-70940.443115
493.930684,-1184.329507,-4441.235652,-77988.521696
493.933235,9622.677246,-7846.182985,-77988.521696
493.935786,4589.276840,888.247130,-75230.577904
493.938340,-12879.583391,13471.748144,-71400.100414
493.940895,-15840.407159,7254.018232,-76149.892501
493.943449,1480.411884,14063.912898,-76456.330700
493.946004,-22206.178260,25463.084405,-66190.651027
493.948558,9030.512492,-1184.329507,-83351.190182
493.951112,3552.988522,4589.276840,-74770.920605
493.953667,-16876.695478,5477.523971,-70940.443115
493.956221,1480.411884,-6217.729913,-81665.780087
493.958776,-10362.883188,12435.459826,-72472.634111
493.961330,-4885.359217,11843.295072,-73698.386908
493.963884,-148.041188,11991.336260,-71246.881314
493.966439,-3849.070898,1036.288319,-74924.139704
493.968993,-10955.047942,13767.830521,-73545.167808
493.971548,-10214.842000,10658.965565,-75843.454302
493.974102,-4441.235652,5921.647536,-75690.235202
493.976656,-9326.594869,11251.130318,-74158.044206
493.979211,-2072.576638,10807.006753,-77682.083497
493.981765,-18505.148550,11695.253884,-77222.426198
493.984320,4885.359217,-740.205942,-75843.454302
493.986874,-1184.329507,8438.347739,-71400.100414
493.989428,148.041188,-5329.482782,-77069.207099
493.991983,29312.155303,-14359.995275,-83964.066581
493.994537,-18209.066173,6513.812290,-64658.460031
493.997092,-148.041188,-9622.677246,-78907.836294
493.999646,9474.636058,0.000000,-73698.386908
494.002200,1184.329507,10510.924376,-70940.443115
494.004755,9326.594869,2220.617826,-77375.645298
494.007309,-6661.853478,6661.853478,-75843.454302
494.009864,-9622.677246,-3701.029710,-76762.768900
494.012418,592.164754,-1480.411884,-75690.235202
494.014972,1480.411884,5329.482782,-72779.072310
494.017527,9326.594869,-2220.617826,-76915.987999
494.020081,5477.523971,-6809.894666,-76456.330700
494.022636,0.000000,-9770.718434,-78754.617194
494.025190,-148.041188,-1628.453072,-75383.797003
494.027744,6809.894666,-5773.606348,-72319.415011
494.030299,8734.430116,-1184.329507,-74464.482406
494.032853,-5181.441594,2516.700203,-76609.549800
494.035408,296.082377,6069.688724,-81512.560987
494.037962,-32421.020260,27239.578666,-70634.004916
494.040519,-888.247130,1924.535449,-83964.066581
494.043077,148.041188,15840.407159,-73391.948708
494.045634,-9770.718434,18801.230927,-65424.555529
494.048192,1628.453072,-5329.482782,-77682.083497
494.050749,-1776.494261,592.164754,-74617.701505
494.053306,-16284.530724,9474.636058,-71246.881314
494.055864,-740.205942,9326.594869,-75843.454302
494.058421,592.164754,11399.171507,-75996.673402
494.060979,-7698.141797,4589.276840,-76303.111601
494.063536,-15840.407159,12435.459826,-72932.291410
494.066093,-9178.553681,9770.718434,-80133.589091
494.068651,0.000000,7402.059420,-74158.044206
494.071208,-6661.853478,8290.306550,-73698.386908
494.073766,-4145.153275,8734.430116,-76762.768900
494.076323,-7994.224174,13175.665768,-71859.757712
494.078880,-3404.947333,10214.842000,-74617.701505
494.081438,-8438.347739,9770.718434,-71093.662214
494.083995,11695.253884,-6809.894666,-75843.454302
494.086553,26203.290347,-3108.864956,-77528.864398
494.089110,-17468.860231,2812.782580,-68642.156621
494.091667,6661.853478,-15100.201217,-82891.532884
494.094225,-2516.700203,6365.771101,-70021.128517
494.096782,-3552.988522,5033.400406,-75690.235202
494.099340,11843.295072,1184.329507,-81052.903688
494.101897,-9326.594869,11547.212695,-74617.701505
494.104454,-5921.647536,-1924.535449,-77528.864398
494.107012,0.000000,-1332.370696,-77069.207099
494.109569,-3849.070898,3256.906145,-77835.302597
494.112127,5181.441594,2516.700203,-76303.111601
494.114684,14063.912898,-9918.759623,-78907.836294
494.117241,2220.617826,-8438.347739,-79367.493593
494.119799,-5477.523971,-1184.329507,-75230.577904
494.122359,6513.812290,-7994.224174,-75077.358804
494.124919,7105.977043,-592.164754,-74311.263306
494.127480,-5477.523971,3108.864956,-75077.358804
494.130040,4293.194464,5033.400406,-82125.437386
494.132600,-29312.155303,28571.949361,-70634.004916
494.135160,-4293.194464,1924.535449,-83810.847481
494.137721,3849.070898,11103.089130,-75077.358804
494.140281,-11843.295072,14211.954086,-68029.280222
494.142841,8290.306550,-8142.265362,-81206.122788
494.145401,-5181.441594,1480.411884,-74617.701505
494.147962,-21910.095883,7994.224174,-71400.100414
494.150522,-148.041188,4737.318029,-76609.549800
494.153082,6957.935855,7846.182985,-78294.959896
494.155642,-8142.265362,7402.059420,-75077.358804
494.158203,-12731.542202,8882.471304,-75230.577904
494.160763,-6513.812290,9326.594869,-75077.358804
494.163323,-3701.029710,8438.347739,-72779.072310
494.165883,-2812.782580,8438.347739,-74464.482406
494.168443,-4737.318029,9622.677246,-77375.645298
494.171004,-14508.036463,18357.107362,-73851.606007
494.173564,-1628.453072,740.205942,-78601.398095
494.176124,11399.171507,2516.700203,-77682.083497
494.178684,-8438.347739,3404.947333,-70327.566716
494.181245,30792.567187,-20725.766376,-84730.162079
494.183805,-9918.759623,740.205942,-68335.718422
494.186365,-2812.782580,-5773.606348,-77835.302597
494.188925,8882.471304,-3552.988522,-76456.330700
494.191486,6069.688724,7994.224174,-71400.100414
494.194046,148.041188,7254.018232,-75230.577904
494.196606,3701.029710,-888.247130,-80133.589091
494.199166,-2664.741391,-1332.370696,-75843.454302
494.201727,-4441.235652,3849.070898,-71706.538613
494.204287,5921.647536,4145.153275,-75690.235202
494.206847,9474.636058,-3701.029710,-78294.959896
494.209407,7105.977043,-4145.153275,-72012.976812
494.211968,-4589.276840,-1924.535449,-73238.729609
494.214528,1036.288319,-3404.947333,-75996.673402
494.217088,3552.988522,-7698.141797,-76149.892501
494.219648,12879.583391,-5773.606348,-79520.712692
494.222209,-14656.077652,17912.983796,-70634.004916
494.224738,-25759.166782,14656.077652,-72625.853210
494.227268,2960.823768,6957.935855,-84117.285680
494.229798,-23094.425390,25167.002028,-67416.403824
494.232328,1776.494261,4145.153275,-77222.426198
494.234858,9474.636058,444.123565,-73391.948708
494.237388,-11399.171507,4885.359217,-72779.072310
494.239917,-5921.647536,-2220.617826,-79980.369991
494.242447,2220.617826,7550.100608,-75996.673402
494.244977,-9622.677246,16728.654289,-69101.813920
494.247507,-1628.453072,7994.224174,-73238.729609
494.250037,-8882.471304,4737.318029,-75996.673402
494.252567,-11399.171507,14359.995275,-75537.016103
494.255096,-5625.565159,8734.430116,-79214.274493
494.257626,-2812.782580,2664.741391,-75690.235202
494.260156,-5329.482782,12879.583391,-74311.263306
494.262686,-13619.789333,12731.542202,-73545.167808
494.265216,2664.741391,11843.295072,-77835.302597
494.267745,-15692.365970,14952.160028,-64658.460031
494.270275,25167.002028,-14063.912898,-80440.027290
494.272805,2664.741391,7402.059420,-70480.785816
494.275335,-4737.318029,-12879.583391,-79827.150892
494.277865,14508.036463,-16136.489536,-83504.409282
494.280395,-18357.107362,5477.523971,-70787.224015
494.282924,10066.800811,-5625.565159,-80899.684589
494.285454,12879.583391,4737.318029,-75996.673402
494.287984,-5773.606348,7846.182985,-76149.892501
494.290514,-7105.977043,-1184.329507,-75690.235202
494.293044,3404.947333,-5477.523971,-77835.302597
494.295574,1628.453072,592.164754,-76149.892501
494.298103,3997.112087,-296.082377,-75230.577904
494.300633,13471.748144,-12879.583391,-82125.437386
494.303163,2812.782580,-6217.729913,-78448.178995
494.305693,-4589.276840,-4441.235652,-79061.055394
494.308223,6217.729913,-10214.842000,-78294.959896
494.310752,10807.006753,296.082377,-72932.291410
494.313282,-9918.759623,4441.235652,-71859.757712
494.315812,9178.553681,1480.411884,-83657.628382
494.318342,-34345.555709,30792.567187,-69101.813920
494.320872,-4293.194464,4293.194464,-81052.903688
494.323402,6809.894666,11695.253884,-73545.167808
494.325941,-6661.853478,15692.365970,-68182.499322
494.328479,-5033.400406,-2368.659014,-77222.426198
494.331017,1628.453072,-888.247130,-76456.330700
494.333555,-15544.324782,10955.047942,-72932.291410
494.336093,-4293.194464,10066.800811,-76149.892501
494.338631,5033.400406,11547.212695,-75996.673402
494.341170,-10510.924376,8142.265362,-71553.319513
494.343708,-12879.583391,12287.418637,-72779.072310
494.346246,-5033.400406,6513.812290,-78754.617194
494.348784,-3701.029710,8734.430116,-74311.263306
494.351322,-6809.894666,8882.471304,-73391.948708
494.353860,-2072.576638,8586.388927,-75077.358804
494.356398,-20281.642811,20725.766376,-70634.004916
494.358937,-15396.283594,7402.059420,-75077.358804
494.361475,31532.773129,-11991.336260,-85343.038477
494.364013,-18061.024985,14952.160028,-62973.049936
494.366551,17172.777854,-24870.919651,-86415.572174
494.369089,6365.771101,-11103.089130,-80440.027290
494.371627,-22058.137072,2368.659014,-72166.195912
494.374165,12139.377449,-6069.688724,-80286.808190
494.376704,9474.636058,9326.594869,-71706.538613
494.379242,-7254.018232,9918.759623,-73238.729609
494.381780,1332.370696,-444.123565,-81972.218286
494.384318,-6809.894666,-5921.647536,-82891.532884
494.386856,-2220.617826,3108.864956,-73851.606007
494.389394,7105.977043,5625.565159,-71246.881314
494.391932,13027.624579,-13175.665768,-80746.465489
494.394471,7105.977043,-7698.141797,-76303.111601
494.397009,-9474.636058,-296.082377,-73391.948708
494.399547,9178.553681,-12435.459826,-80746.465489
494.402085,6513.812290,3997.112087,-71859.757712
494.404623,-10362.883188,3849.070898,-72779.072310
494.407161,15396.283594,1184.329507,-83657.628382
494.409700,-43820.191766,36862.255912,-64045.583633
494.412238,-4589.276840,3108.864956,-82278.656485
494.414776,7254.018232,11251.130318,-72779.072310
494.417314,-15840.407159,16876.695478,-65118.117330
494.419852,10955.047942,-9178.553681,-81818.999186
494.422390,0.000000,1924.535449,-75077.358804
494.424928,-26055.249158,8438.347739,-70021.128517
494.427474,-3256.906145,9622.677246,-74770.920605
494.430019,3849.070898,10658.965565,-75383.797003
494.432564,-9622.677246,7846.182985,-71553.319513
494.435109,-12731.542202,9770.718434,-73238.729609
494.437655,-5773.606348,4589.276840,-80440.027290
494.440200,-2812.782580,6809.894666,-76915.987999
494.442745,-7994.224174,13027.624579,-72932.291410
494.445291,-5033.400406,8882.471304,-74158.044206
494.447836,-10362.883188,21021.848753,-70327.566716
494.450381,-15396.283594,4737.318029,-76609.549800
494.452926,27239.578666,-10362.883188,-86875.229473
494.455472,-16876.695478,12879.583391,-63892.364533
494.458017,25463.084405,-27535.661042,-86262.353075
494.460562,17024.736666,-16580.613101,-85343.038477
494.463107,-17024.736666,9030.512492,-69561.471218
494.465653,5329.482782,-7105.977043,-80899.684589
494.468198,14656.077652,2812.782580,-74311.263306
494.470743,-4145.153275,7550.100608,-71859.757712
494.473289,3849.070898,-3552.988522,-78601.398095
494.475834,3701.029710,-2960.823768,-74770.920605
494.478379,-1924.535449,592.164754,-72472.634111
494.480924,18653.189738,-5773.606348,-74617.701505
494.483470,13175.665768,-11843.295072,-72932.291410
494.486015,-888.247130,-3849.070898,-72012.976812
494.488560,-1036.288319,-9622.677246,-79980.369991
494.491105,5921.647536,-8882.471304,-79061.055394
494.493651,3552.988522,1924.535449,-73545.167808
494.496196,-16284.530724,14508.036463,-71400.100414
494.498741,7994.224174,2516.700203,-81052.903688
494.501287,-21614.013506,31976.896694,-63585.926334
494.503832,-20429.683999,16136.489536,-71553.319513
494.506377,12879.583391,-1628.453072,-84883.381178
494.508922,-5477.523971,14804.118840,-69408.252119
494.511468,-7402.059420,-1184.329507,-77375.645298
494.514013,1628.453072,-2220.617826,-75537.016103
494.516558,-21910.095883,10658.965565,-70480.785816
494.519103,-148.041188,7254.018232,-76915.987999
494.521649,5181.441594,10510.924376,-76456.330700
494.524194,-11843.295072,7846.182985,-73085.510509
494.526739,-7254.018232,9474.636058,-75843.454302
494.529258,-5329.482782,6513.812290,-79061.055394
494.531777,-8586.388927,11399.171507,-72472.634111
494.534296,-2664.741391,11695.253884,-72319.415011
494.536815,-15100.201217,12287.418637,-73851.606007
494.539334,6069.688724,7846.182985,-77988.521696
494.541853,-18949.272115,13767.830521,-68948.594820
494.544372,23242.466579,-17616.901420,-84117.285680
494.546890,18357.107362,1332.370696,-71859.757712
494.549409,-14063.912898,-3404.947333,-70021.128517
494.551928,12435.459826,-17024.736666,-84730.162079
494.554447,-12139.377449,9474.636058,-69561.471218
494.556966,-1924.535449,-296.082377,-78448.178995
494.559485,15248.242405,-1184.329507,-78294.959896
494.562004,2664.741391,5921.647536,-75537.016103
494.564523,-10214.842000,1924.535449,-71859.757712
494.567042,3552.988522,296.082377,-73545.167808
494.569561,1184.329507,4589.276840,-75230.577904
494.572079,15544.324782,-4145.153275,-78907.836294
