#time,accel_x,accel_y,accel_z
11275.752010,-1184.329507,10362.883188,-67109.965625
11275.754728,1184.329507,6661.853478,-75077.358804
11275.757447,-7402.059420,1480.411884,-86109.133975
11275.760166,-2368.659014,3108.864956,-81972.218286
11275.762885,-444.123565,10510.924376,-64198.802732
11275.765603,-3849.070898,9326.594869,-62513.392637
11275.768322,-4737.318029,9178.553681,-73698.386908
11275.771293,296.082377,1628.453072,-88560.639569
11275.774257,-5033.400406,3108.864956,-77375.645298
11275.777221,-1776.494261,8438.347739,-66343.870127
11275.780185,-3256.906145,5921.647536,-69101.813920
11275.783149,-2812.782580,8882.471304,-72012.976812
11275.786114,-592.164754,2812.782580,-81818.999186
11275.789078,-3552.988522,1480.411884,-83197.971083
11275.792042,-1776.494261,8142.265362,-76762.768900
11275.795006,-7254.018232,7254.018232,-66190.651027
11275.797970,-10955.047942,11251.130318,-69714.690318
11275.800934,-740.205942,10510.924376,-73698.386908
11275.803898,5921.647536,3849.070898,-82738.313784
11275.806862,-2220.617826,1036.288319,-85802.695776
11275.809826,-4885.359217,3701.029710,-81052.903688
11275.812791,8438.347739,9326.594869,-67876.061123
11275.815755,-11251.130318,4737.318029,-64198.802732
11275.818719,-11695.253884,8586.388927,-71400.100414
11275.821683,10066.800811,10362.883188,-82278.656485
11275.824647,-3849.070898,-4293.194464,-82585.094684
11275.827611,-9918.759623,6661.853478,-69408.252119
11275.830575,-7402.059420,13175.665768,-61747.297139
11275.833539,-5033.400406,3256.906145,-68795.375720
11275.836503,2072.576638,2072.576638,-90705.706963
11275.839468,-1924.535449,0.000000,-86722.010374
11275.842432,-10214.842000,5329.482782,-66650.308326
11275.845396,-6069.688724,7550.100608,-64198.802732
11275.848360,-1628.453072,4885.359217,-75996.673402
11275.851324,-1036.288319,4737.318029,-77988.521696
11275.854288,-15988.448347,9178.553681,-70327.566716
11275.857252,-7846.182985,1924.535449,-71859.757712
11275.860216,-28127.825796,8142.265362,-74617.701505
11275.863180,4885.359217,4589.276840,-76762.768900
11275.866099,592.164754,2812.782580,-74004.825107
11275.869017,-19393.395680,6217.729913,-74311.263306
11275.871935,3552.988522,4737.318029,-76149.892501
11275.874854,-1776.494261,6809.894666,-76303.111601
11275.877772,-5181.441594,7254.018232,-69714.690318
11275.880691,-6217.729913,7550.100608,-69101.813920
11275.883609,-11991.336260,7698.141797,-73698.386908
11275.886527,-740.205942,-592.164754,-82125.437386
11275.889446,-740.205942,-888.247130,-89326.735067
11275.892364,-5773.606348,6069.688724,-75537.016103
11275.895282,-17912.983796,148.041188,-47344.701776
11275.898201,-4145.153275,14211.954086,-44127.100685
11275.901119,13323.706956,3108.864956,-85189.819378
11275.904037,10362.883188,-3108.864956,-101584.263035
11275.906956,148.041188,2812.782580,-89479.954166
11275.909874,-9326.594869,3256.906145,-76915.987999
11275.912793,10807.006753,21465.972318,-54545.999458
11275.915711,13915.871710,-1184.329507,-86262.353075
11275.918629,-14508.036463,0.000000,-92544.336158
11275.921548,-592.164754,10066.800811,-75537.016103
11275.924466,-10955.047942,5477.523971,-57610.381450
11275.927384,-11991.336260,13027.624579,-55771.752254
11275.930303,2516.700203,5329.482782,-86568.791274
11275.933221,1036.288319,-2516.700203,-100358.510238
11275.936139,-11547.212695,5033.400406,-86109.133975
11275.939058,6661.853478,10658.965565,-66803.527426
11275.941976,9474.636058,11843.295072,-61287.639840
11275.944895,4885.359217,10807.006753,-63892.364533
11275.947813,5033.400406,6809.894666,-69408.252119
11275.950731,-2368.659014,5329.482782,-81052.903688
11275.953650,10510.924376,6217.729913,-81052.903688
11275.956568,4145.153275,7698.141797,-68335.718422
11275.959474,1924.535449,6957.935855,-65271.336430
11275.962379,592.164754,8734.430116,-60061.887043
11275.965285,-3552.988522,296.082377,-66803.527426
11275.968191,-1480.411884,6809.894666,-65118.117330
11275.971096,4441.235652,8142.265362,-79061.055394
11275.974002,10362.883188,-888.247130,-91778.240660
11275.976908,-8438.347739,-1036.288319,-91165.364262
11275.979813,9030.512492,13915.871710,-75537.016103
11275.982719,17024.736666,5477.523971,-78141.740796
11275.985625,5625.565159,16136.489536,-75843.454302
11275.988530,-2220.617826,-3256.906145,-91165.364262
11275.991436,-16580.613101,4589.276840,-77682.083497
11275.994342,-8290.306550,10510.924376,-65424.555529
11275.997247,-3256.906145,8586.388927,-78294.959896
11276.000153,1480.411884,4737.318029,-84576.942979
11276.003059,-13027.624579,-444.123565,-97447.347346
11276.005964,-10362.883188,9326.594869,-78601.398095
11276.008870,4589.276840,17764.942608,-74158.044206
11276.011776,-8734.430116,1036.288319,-77835.302597
11276.014681,0.000000,4145.153275,-81359.341888
11276.017587,-4885.359217,4145.153275,-83657.628382
11276.020493,-10066.800811,9178.553681,-65271.336430
11276.023398,-6069.688724,8734.430116,-66497.089226
11276.026304,-13175.665768,10955.047942,-75077.358804
11276.029210,-1184.329507,3256.906145,-84117.285680
11276.032115,-3404.947333,2220.617826,-83657.628382
11276.035021,-592.164754,1628.453072,-79827.150892
11276.037927,-4145.153275,12435.459826,-74464.482406
11276.040832,-7846.182985,5477.523971,-78907.836294
11276.043738,-6365.771101,4145.153275,-80593.246390
11276.046644,-5033.400406,7698.141797,-75537.016103
11276.049549,5921.647536,4589.276840,-67263.184724
11276.052621,-5773.606348,6809.894666,-62206.954438
11276.055693,-17616.901420,8586.388927,-69714.690318
11276.058764,-3256.906145,7550.100608,-77682.083497
11276.061836,1184.329507,1184.329507,-77069.207099
11276.064908,-5477.523971,5181.441594,-83504.409282
11276.067979,-3256.906145,7105.977043,-76915.987999
11276.071051,-16284.530724,-1924.535449,-73545.167808
11276.074123,-3701.029710,11103.089130,-55312.094956
11276.077195,8438.347739,6661.853478,-68642.156621
11276.080266,-2812.782580,4589.276840,-81972.218286
11276.083338,-7994.224174,-1184.329507,-87028.448573
11276.086410,-4885.359217,8438.347739,-71246.881314
11276.089481,444.123565,25167.002028,-69561.471218
11276.092553,12583.501014,592.164754,-91471.802461
11276.095625,-148.041188,-2664.741391,-93463.650756
11276.098697,-13175.665768,9770.718434,-69561.471218
11276.101768,7698.141797,7550.100608,-51175.179266
11276.104840,296.082377,9178.553681,-65884.212828
11276.107912,-8734.430116,6809.894666,-77528.864398
11276.110983,6365.771101,-3256.906145,-93003.993457
11276.114055,1332.370696,7402.059420,-83197.971083
11276.117127,5477.523971,6217.729913,-70940.443115
11276.120199,-15544.324782,8882.471304,-71859.757712
11276.123270,5477.523971,7105.977043,-73085.510509
11276.126342,-16580.613101,7698.141797,-71859.757712
11276.129414,9474.636058,8142.265362,-70634.004916
11276.132485,4885.359217,7254.018232,-65730.993728
11276.135557,-4737.318029,12435.459826,-65730.993728
11276.138629,7402.059420,1332.370696,-78448.178995
11276.141701,-2960.823768,740.205942,-76915.987999
11276.144772,2368.659014,4885.359217,-67416.403824
11276.147844,5181.441594,7105.977043,-59295.791545
11276.150878,-6661.853478,1332.370696,-54392.780358
11276.153911,-6069.688724,9474.636058,-66803.527426
11276.156945,6365.771101,7254.018232,-82585.094684
11276.159979,10214.842000,3849.070898,-88867.077768
11276.163013,11843.295072,8438.347739,-83964.066581
11276.166046,15248.242405,9178.553681,-82738.313784
11276.169080,-20133.601622,-4293.194464,-80899.684589
11276.172114,592.164754,10807.006753,-66497.089226
11276.175147,-6217.729913,3552.988522,-60521.544342
11276.178181,-10066.800811,9474.636058,-67722.842023
11276.181215,-13915.871710,-3552.988522,-74617.701505
11276.184248,-11695.253884,6513.812290,-73851.606007
11276.187282,-10807.006753,10214.842000,-80440.027290
11276.190316,-2960.823768,-1776.494261,-93003.993457
11276.193350,444.123565,-296.082377,-93923.308055
11276.196383,-5625.565159,9918.759623,-73545.167808
11276.199417,-2664.741391,7254.018232,-72932.291410
11276.202451,-4737.318029,5033.400406,-63279.488135
11276.205484,-8882.471304,10510.924376,-64964.898230
11276.208518,-8438.347739,2220.617826,-74464.482406
11276.211552,-6365.771101,6217.729913,-80593.246390
11276.214586,-9770.718434,11695.253884,-87334.886772
11276.217619,5921.647536,888.247130,-91778.240660
11276.220653,-6661.853478,2220.617826,-92084.678860
11276.223666,-7994.224174,2960.823768,-72319.415011
11276.226679,5477.523971,13027.624579,-53473.465760
11276.229691,-12879.583391,8142.265362,-60981.201641
11276.232704,-13915.871710,3108.864956,-81206.122788
11276.235717,-3849.070898,7846.182985,-83197.971083
11276.238730,-7846.182985,3108.864956,-73391.948708
11276.241742,-2072.576638,12435.459826,-81052.903688
11276.244755,0.000000,-3997.112087,-101124.605736
11276.247768,-21021.848753,-3552.988522,-81665.780087
11276.250781,-11399.171507,5773.606348,-55465.314055
11276.253793,4885.359217,17172.777854,-56231.409553
11276.256806,-12583.501014,10658.965565,-50102.645569
11276.259819,-1628.453072,6957.935855,-77835.302597
11276.262832,-8142.265362,-10658.965565,-96681.251848
11276.265844,4441.235652,19689.478057,-70327.566716
11276.268857,19097.313304,4441.235652,-79520.712692
11276.271870,-3256.906145,2368.659014,-84883.381178
11276.274883,-2072.576638,2220.617826,-89479.954166
11276.277895,9622.677246,1628.453072,-62666.611736
11276.280908,-2960.823768,11991.336260,-41369.156892
11276.283921,-6957.935855,13323.706956,-58223.257848
11276.286934,2516.700203,-296.082377,-87794.544071
11276.289946,2960.823768,740.205942,-94995.841752
11276.292959,19837.519246,7402.059420,-89939.611465
11276.295972,3404.947333,9030.512492,-82585.094684
11276.298985,-11991.336260,5477.523971,-70480.785816
11276.301997,-9326.594869,10658.965565,-68182.499322
11276.305010,3701.029710,6217.729913,-78141.740796
11276.308023,1332.370696,3849.070898,-70634.004916
11276.311036,-7994.224174,5773.606348,-71400.100414
11276.314048,-8142.265362,2812.782580,-74924.139704
11276.317061,1184.329507,7994.224174,-72166.195912
11276.320191,3701.029710,7105.977043,-66343.870127
11276.323322,2812.782580,4737.318029,-74617.701505
11276.326452,-8734.430116,6809.894666,-77528.864398
11276.329582,-148.041188,6809.894666,-75690.235202
11276.332712,5033.400406,5477.523971,-60521.544342
11276.335842,2220.617826,13323.706956,-60981.201641
11276.338972,6661.853478,10214.842000,-71093.662214
11276.342103,-10214.842000,-8734.430116,-92544.336158
11276.345233,-5033.400406,10807.006753,-78141.740796
11276.348363,-148.041188,148.041188,-77375.645298
11276.351493,5033.400406,19245.354492,-49949.426470
11276.354623,-10807.006753,-2072.576638,-71859.757712
11276.357753,-6365.771101,4441.235652,-77528.864398
11276.360884,-7402.059420,6661.853478,-75996.673402
11276.364014,-13175.665768,2664.741391,-71859.757712
11276.367144,-2960.823768,3997.112087,-84423.723880
11276.370274,5477.523971,2368.659014,-86262.353075
11276.373404,-13027.624579,4145.153275,-77222.426198
11276.376534,-7254.018232,5181.441594,-79214.274493
11276.379665,-15988.448347,6069.688724,-74158.044206
11276.382795,-22354.219448,9030.512492,-72472.634111
11276.385925,-18949.272115,11991.336260,-85036.600278
11276.389055,-12139.377449,7105.977043,-88867.077768
11276.392185,-13619.789333,10807.006753,-106027.616923
11276.395315,-3849.070898,-740.205942,-105874.397824
11276.398446,-7254.018232,6661.853478,-79367.493593
11276.401576,-11843.295072,9474.636058,-61287.639840
11276.404706,-9326.594869,5181.441594,-65884.212828
11276.407836,-11695.253884,-2220.617826,-75230.577904
11276.410966,-7550.100608,888.247130,-58989.353346
11276.414096,-8438.347739,14508.036463,-51941.274764
11276.417227,-1480.411884,2072.576638,-72472.634111
11276.420441,-444.123565,2812.782580,-91012.145162
11276.423655,4293.194464,-1480.411884,-81359.341888
11276.426870,15544.324782,14952.160028,-66497.089226
11276.430084,-3404.947333,7105.977043,-57150.724151
11276.433299,13471.748144,9918.759623,-66650.308326
11276.436513,-13767.830521,-6513.812290,-73391.948708
11276.439728,-4737.318029,21169.889941,-71553.319513
11276.442942,10510.924376,-1036.288319,-96834.470947
11276.446157,-3108.864956,11399.171507,-90552.487864
11276.449371,1184.329507,2516.700203,-103576.111330
11276.452586,4145.153275,-2664.741391,-88867.077768
11276.455800,-6513.812290,13619.789333,-59142.572446
11276.459015,148.041188,6217.729913,-62513.392637
11276.462229,-6513.812290,888.247130,-80286.808190
11276.465444,6365.771101,7698.141797,-84730.162079
11276.468658,7254.018232,888.247130,-84423.723880
11276.471873,-10066.800811,-1332.370696,-82585.094684
11276.475087,888.247130,14952.160028,-72166.195912
11276.478302,-3701.029710,5625.565159,-70480.785816
11276.481516,3997.112087,8734.430116,-78448.178995
11276.484730,-5921.647536,5773.606348,-83810.847481
11276.487945,1776.494261,3108.864956,-83504.409282
11276.491159,3404.947333,3404.947333,-68182.499322
11276.494374,-1628.453072,14508.036463,-61440.858940
11276.497588,3108.864956,592.164754,-83657.628382
11276.500803,-10066.800811,4145.153275,-82891.532884
11276.504017,-10066.800811,7105.977043,-68335.718422
11276.507232,2220.617826,5033.400406,-57457.162350
11276.510446,-1924.535449,14656.077652,-54086.342159
11276.513661,-3404.947333,9178.553681,-66497.089226
11276.516875,-9030.512492,-10510.924376,-102503.577632
11276.520090,-2664.741391,16876.695478,-68795.375720
11276.523364,-444.123565,5181.441594,-53320.246661
11276.526638,4293.194464,19689.478057,-47804.359075
11276.529912,-14804.118840,-3849.070898,-74158.044206
11276.533186,-10362.883188,6809.894666,-68948.594820
11276.536459,-4293.194464,10214.842000,-68488.937521
11276.539733,-11103.089130,3997.112087,-80286.808190
11276.543007,-2516.700203,444.123565,-92391.117059
11276.546281,-2220.617826,5773.606348,-91318.583362
11276.549555,-15248.242405,8586.388927,-73391.948708
11276.552829,-9474.636058,11251.130318,-68488.937521
11276.556103,5477.523971,7254.018232,-78294.959896
11276.559377,-12287.418637,3108.864956,-83964.066581
11276.562651,5773.606348,5181.441594,-80286.808190
11276.565925,-7254.018232,6957.935855,-66650.308326
11276.569199,-21021.848753,9030.512492,-69101.813920
11276.572473,148.041188,1332.370696,-76456.330700
11276.575747,-1776.494261,3849.070898,-73698.386908
11276.579021,-8586.388927,14656.077652,-70327.566716
11276.582295,-5181.441594,1776.494261,-88407.420469
11276.585569,-3849.070898,-1036.288319,-87181.667672
11276.588843,-2960.823768,13471.748144,-85343.038477
11276.592117,2516.700203,3108.864956,-81512.560987
11276.595391,-19393.395680,2960.823768,-73085.510509
11276.598665,-10807.006753,4589.276840,-66803.527426
11276.601939,2516.700203,8142.265362,-60521.544342
11276.605213,-1924.535449,3552.988522,-66037.431928
11276.608487,4441.235652,14804.118840,-69867.909418
11276.611761,-296.082377,-5921.647536,-86568.791274
11276.615034,148.041188,18061.024985,-76762.768900
11276.618308,16136.489536,1332.370696,-86875.229473
11276.621582,2368.659014,-1480.411884,-81818.999186
11276.624856,-10955.047942,12139.377449,-67109.965625
11276.628160,444.123565,888.247130,-67722.842023
11276.631475,2368.659014,13027.624579,-45659.291681
11276.634790,-11843.295072,11843.295072,-59602.229744
11276.638104,-4145.153275,-1628.453072,-105567.959624
11276.641419,-12287.418637,-5181.441594,-106640.493322
11276.644734,4737.318029,13915.871710,-64198.802732
11276.648049,4441.235652,15396.283594,-58836.134246
11276.651364,2072.576638,5625.565159,-65424.555529
11276.654679,5773.606348,5477.523971,-85802.695776
11276.657994,1924.535449,-3404.947333,-89633.173266
11276.661309,-1184.329507,8438.347739,-62819.830836
11276.664624,-7402.059420,18653.189738,-63279.488135
11276.667939,12139.377449,9770.718434,-74924.139704
11276.671254,-6069.688724,-8290.306550,-103116.454031
11276.674568,-14063.912898,6957.935855,-87794.544071
11276.677883,8586.388927,15100.201217,-58070.038748
11276.681198,9918.759623,888.247130,-66497.089226
11276.684513,2516.700203,9326.594869,-92697.555258
11276.687828,10066.800811,-3404.947333,-103882.549529
11276.691143,-15248.242405,2664.741391,-78907.836294
11276.694458,-7402.059420,14359.995275,-51481.617466
11276.697773,2516.700203,3552.988522,-69408.252119
11276.701088,-11991.336260,-740.205942,-94076.527154
11276.704403,-7550.100608,6069.688724,-90092.830565
11276.707718,2368.659014,7994.224174,-80133.589091
11276.711032,-3552.988522,15988.448347,-74924.139704
11276.714347,-740.205942,444.123565,-91471.802461
11276.717662,-7994.224174,-1480.411884,-91165.364262
11276.720977,-10510.924376,14656.077652,-67416.403824
11276.724292,-5921.647536,4589.276840,-64352.021832
11276.727607,-16876.695478,1628.453072,-72472.634111
11276.730922,-11695.253884,6661.853478,-75690.235202
11276.734264,17320.819043,6661.853478,-75996.673402
11276.737606,-888.247130,-4145.153275,-77222.426198
11276.740948,4589.276840,10955.047942,-70021.128517
11276.744290,-3108.864956,4885.359217,-65884.212828
11276.747632,-8882.471304,10214.842000,-69714.690318
11276.750974,-13767.830521,4589.276840,-70174.347617
11276.754316,-1480.411884,8734.430116,-82278.656485
11276.757658,3404.947333,592.164754,-75690.235202
11276.761000,-14359.995275,5329.482782,-68182.499322
11276.764342,1480.411884,12879.583391,-72932.291410
11276.767684,-6365.771101,-5033.400406,-85036.600278
11276.771026,-2960.823768,18949.272115,-71859.757712
11276.774368,-1184.329507,-4293.194464,-89479.954166
11276.777710,8438.347739,13175.665768,-75537.016103
11276.781052,888.247130,4293.194464,-81052.903688
11276.784394,9326.594869,3997.112087,-78754.617194
11276.787736,-7402.059420,-3256.906145,-84117.285680
11276.791078,-1480.411884,9622.677246,-68642.156621
11276.794420,3108.864956,2072.576638,-51941.274764
11276.797762,0.000000,13915.871710,-67876.061123
11276.801104,2516.700203,-2220.617826,-98673.100142
11276.804446,12879.583391,-3256.906145,-94382.965354
11276.807788,-2960.823768,14063.912898,-62973.049936
11276.811130,7698.141797,13619.789333,-60368.325242
11276.814472,15248.242405,4293.194464,-67569.622924
11276.817814,-5329.482782,5625.565159,-77222.426198
11276.821156,19541.436869,4737.318029,-76762.768900
11276.824498,13619.789333,-4441.235652,-67569.622924
11276.827840,-296.082377,8586.388927,-61440.858940
11276.831182,5181.441594,2516.700203,-78601.398095
11276.834524,2960.823768,4145.153275,-77988.521696
11276.837866,4885.359217,2664.741391,-69714.690318
11276.841225,5181.441594,7254.018232,-64505.240932
11276.844584,-4441.235652,5181.441594,-68182.499322
11276.847942,-2960.823768,7994.224174,-75077.358804
11276.851301,-3849.070898,-888.247130,-77528.864398
11276.854660,10362.883188,1480.411884,-72932.291410
11276.858019,-3552.988522,15544.324782,-69408.252119
11276.861378,4145.153275,8142.265362,-81206.122788
11276.864737,-6957.935855,-5477.523971,-96987.690047
11276.868095,-8290.306550,12139.377449,-81206.122788
11276.871454,-3552.988522,-5625.565159,-85496.257577
11276.874813,-15100.201217,14063.912898,-64198.802732
11276.878172,-14952.160028,2812.782580,-67416.403824
11276.881531,-8734.430116,6513.812290,-59449.010645
11276.884889,-9326.594869,12731.542202,-82125.437386
11276.888248,-3552.988522,-2516.700203,-110777.409011
11276.891607,-1628.453072,-1628.453072,-94229.746254
11276.894966,-1480.411884,3701.029710,-91931.459760
11276.898325,-12435.459826,13175.665768,-56691.066852
11276.901683,-148.041188,6809.894666,-54086.342159
11276.905042,-3108.864956,4293.194464,-69714.690318
11276.908401,11547.212695,-148.041188,-82585.094684
11276.911760,444.123565,5625.565159,-77222.426198
11276.915119,-6069.688724,5033.400406,-73545.167808
11276.918478,-7105.977043,7698.141797,-74311.263306
11276.921836,-9326.594869,-2812.782580,-74158.044206
11276.925195,-8142.265362,11695.253884,-59142.572446
11276.928554,-1480.411884,6513.812290,-63585.926334
11276.931913,-8882.471304,2368.659014,-82585.094684
11276.935272,-11399.171507,10214.842000,-72932.291410
11276.938630,-1332.370696,-3997.112087,-74924.139704
11276.941989,5921.647536,16876.695478,-77375.645298
11276.945348,-4145.153275,0.000000,-91778.240660
11276.948716,9622.677246,9622.677246,-77988.521696
11276.952084,-4145.153275,296.082377,-70174.347617
11276.955452,1924.535449,14952.160028,-58070.038748
11276.958820,2220.617826,-1924.535449,-71706.538613
11276.962188,-6365.771101,9770.718434,-60521.544342
11276.965556,-4885.359217,3404.947333,-73085.510509
11276.968924,13915.871710,2220.617826,-102963.234931
11276.972292,3404.947333,3997.112087,-99285.976541
11276.975660,9770.718434,2812.782580,-87641.324971
11276.979028,8142.265362,5921.647536,-76915.987999
11276.982396,-2812.782580,8586.388927,-67722.842023
11276.985764,-4589.276840,2072.576638,-68488.937521
11276.989132,-5477.523971,2664.741391,-73698.386908
11276.992500,-1036.288319,10658.965565,-68948.594820
11276.995868,-3256.906145,11991.336260,-66956.746525
11276.999236,3552.988522,-1628.453072,-89173.515967
11277.002604,1628.453072,740.205942,-96221.594549
11277.005972,5625.565159,10510.924376,-80899.684589
11277.009340,5921.647536,7254.018232,-71093.662214
11277.012708,-12879.583391,5773.606348,-71400.100414
11277.016076,-2368.659014,10214.842000,-69867.909418
11277.019444,8290.306550,4441.235652,-75077.358804
11277.022812,-3849.070898,3108.864956,-79367.493593
11277.026180,7698.141797,14211.954086,-85955.914876
11277.029554,-2812.782580,-5921.647536,-88867.077768
11277.032928,-16728.654289,16728.654289,-62973.049936
11277.036301,6217.729913,2664.741391,-72319.415011
11277.039675,-5773.606348,5477.523971,-76609.549800
11277.043049,-14359.995275,5477.523971,-75690.235202
11277.046422,-1776.494261,11991.336260,-71553.319513
11277.049796,-1480.411884,-888.247130,-83504.409282
11277.053170,-3256.906145,10510.924376,-80746.465489
11277.056543,-444.123565,-740.205942,-85496.257577
11277.059917,-3108.864956,6513.812290,-60521.544342
11277.063291,-12731.542202,16136.489536,-53933.123059
11277.066664,1776.494261,4293.194464,-86262.353075
11277.070038,7402.059420,-5921.647536,-96834.470947
11277.073412,-9474.636058,5625.565159,-75383.797003
11277.076785,12435.459826,10214.842000,-68642.156621
11277.080159,-1628.453072,13619.789333,-69561.471218
11277.083533,-5773.606348,2516.700203,-77222.426198
11277.086906,8734.430116,-4737.318029,-81206.122788
11277.090280,-20133.601622,7254.018232,-68642.156621
11277.093654,5773.606348,5477.523971,-65424.555529
11277.097027,-4589.276840,-1480.411884,-72319.415011
11277.100401,-17468.860231,5773.606348,-69867.909418
11277.103775,-6661.853478,7402.059420,-83044.751983
11277.107148,-7846.182985,-7105.977043,-85802.695776
11277.110522,-1184.329507,11991.336260,-68948.594820
11277.113896,-3701.029710,7698.141797,-73238.729609
11277.117269,6365.771101,6069.688724,-78141.740796
11277.120643,0.000000,3997.112087,-85189.819378
11277.124017,-1776.494261,5477.523971,-81512.560987
11277.127390,3849.070898,3256.906145,-77375.645298
11277.130764,444.123565,15100.201217,-63585.926334
11277.134138,-3404.947333,-2220.617826,-58529.696047
11277.137511,444.123565,10658.965565,-70480.785816
11277.140883,-8142.265362,4145.153275,-71706.538613
11277.144256,11991.336260,3552.988522,-73545.167808
11277.147629,2516.700203,6661.853478,-81359.341888
11277.151002,5033.400406,10955.047942,-78754.617194
11277.154375,-740.205942,3108.864956,-83964.066581
11277.157748,-296.082377,3404.947333,-84423.723880
11277.161121,-5477.523971,10510.924376,-80440.027290
11277.164494,10214.842000,5625.565159,-65884.212828
11277.167867,-5033.400406,3701.029710,-57610.381450
11277.171240,-5921.647536,7254.018232,-69408.252119
11277.174613,10510.924376,-148.041188,-84730.162079
11277.177986,-5625.565159,2812.782580,-76456.330700
11277.181359,-6513.812290,8882.471304,-68488.937521
11277.184732,14508.036463,10214.842000,-76149.892501
11277.188104,12435.459826,-4589.276840,-93616.869856
11277.191477,4885.359217,13323.706956,-85802.695776
11277.194850,-2516.700203,-6957.935855,-84270.504780
11277.198223,-14508.036463,19541.436869,-49949.426470
11277.201596,-296.082377,15248.242405,-54699.218557
11277.204969,-9622.677246,4589.276840,-76149.892501
11277.208342,-10807.006753,-2960.823768,-93003.993457
11277.211715,3701.029710,16728.654289,-78141.740796
11277.215088,-5033.400406,-5329.482782,-93463.650756
11277.218461,-7994.224174,4737.318029,-93463.650756
11277.221834,-8290.306550,-1036.288319,-99285.976541
11277.225207,-3849.070898,3404.947333,-57610.381450
11277.228580,-18061.024985,16580.613101,-49336.550071
11277.231953,-8586.388927,7698.141797,-81972.218286
11277.235326,-3849.070898,-1480.411884,-92544.336158
11277.238698,-592.164754,9178.553681,-75383.797003
11277.242071,-4441.235652,5773.606348,-64811.679131
11277.245442,-5329.482782,3108.864956,-72166.195912
11277.248812,-9918.759623,17172.777854,-72319.415011
11277.252182,-2516.700203,4885.359217,-80746.465489
11277.255552,-5181.441594,3997.112087,-76762.768900
11277.258923,-9770.718434,5625.565159,-59908.667944
11277.262293,-13767.830521,1480.411884,-61747.297139
11277.265663,-7105.977043,15988.448347,-56691.066852
11277.269033,-6661.853478,3997.112087,-61287.639840
11277.272404,2220.617826,13767.830521,-79673.931792
11277.275774,-14359.995275,-9178.553681,-110624.189911
11277.279144,10510.924376,14656.077652,-79061.055394
11277.282514,9326.594869,592.164754,-70021.128517
11277.285885,9770.718434,13323.706956,-66037.431928
11277.289255,-6513.812290,-2812.782580,-79061.055394
11277.292625,444.123565,14508.036463,-56844.285952
11277.295995,592.164754,2664.741391,-68029.280222
11277.299366,10362.883188,592.164754,-91165.364262
11277.302736,2812.782580,-1776.494261,-104801.864126
11277.306106,3108.864956,-1332.370696,-94689.403553
11277.309476,3701.029710,13323.706956,-71093.662214
11277.312847,7550.100608,2812.782580,-72166.195912
11277.316217,-10214.842000,4737.318029,-73698.386908
11277.319587,-22798.343014,11251.130318,-78294.959896
11277.322957,10955.047942,2516.700203,-84883.381178
11277.326328,-5181.441594,8142.265362,-82891.532884
11277.329698,4293.194464,4885.359217,-83504.409282
11277.333068,10807.006753,2368.659014,-84883.381178
11277.336438,-4293.194464,9178.553681,-67569.622924
11277.339809,2812.782580,4145.153275,-59142.572446
11277.343179,-13027.624579,4145.153275,-64964.898230
11277.346549,7846.182985,14063.912898,-65424.555529
11277.349919,12583.501014,5625.565159,-64352.021832
11277.353285,3256.906145,14211.954086,-79061.055394
11277.356650,-444.123565,-3108.864956,-100052.072039
11277.360016,2960.823768,4737.318029,-86262.353075
11277.363381,0.000000,9474.636058,-65730.993728
11277.366746,-10807.006753,10807.006753,-57916.819649
11277.370112,1480.411884,5921.647536,-68642.156621
11277.373477,-5477.523971,5181.441594,-73238.729609
11277.376843,-8142.265362,6809.894666,-74311.263306
11277.380208,1332.370696,5625.565159,-95608.718150
11277.383573,-11843.295072,-3552.988522,-100358.510238
11277.386939,-5477.523971,3256.906145,-86568.791274
11277.390304,-9770.718434,6217.729913,-68335.718422
11277.393670,-15692.365970,10955.047942,-56078.190454
11277.397035,-3256.906145,6809.894666,-68642.156621
11277.400400,-18209.066173,-3404.947333,-95915.156350
11277.403766,-3701.029710,3997.112087,-87947.763170
11277.407131,-16876.695478,12287.418637,-79061.055394
11277.410497,-6957.935855,4441.235652,-66956.746525
11277.413862,-10807.006753,5625.565159,-73545.167808
11277.417227,-6661.853478,6217.729913,-70327.566716
11277.420593,-4589.276840,4885.359217,-65424.555529
11277.423958,-14211.954086,17024.736666,-70327.566716
11277.427324,5773.606348,2812.782580,-88254.201370
11277.430689,1184.329507,-1184.329507,-95302.279951
11277.434054,-13619.789333,296.082377,-83657.628382
11277.437420,1332.370696,15840.407159,-54545.999458
11277.440785,-3552.988522,2664.741391,-56691.066852
11277.444151,-2664.741391,8734.430116,-73851.606007
11277.447516,5625.565159,3404.947333,-82738.313784
11277.450881,2812.782580,14508.036463,-72779.072310
11277.454247,8290.306550,1184.329507,-90092.830565
11277.457612,1480.411884,-2220.617826,-94995.841752
11277.460893,-4145.153275,13619.789333,-67722.842023
11277.464173,296.082377,16136.489536,-48723.673673
11277.467454,2812.782580,5921.647536,-68335.718422
11277.470735,444.123565,148.041188,-79673.931792
11277.474015,9622.677246,1480.411884,-85649.476676
11277.477296,-1332.370696,-1036.288319,-76303.111601
11277.480576,-4885.359217,11547.212695,-70787.224015
11277.483857,5773.606348,9474.636058,-72932.291410
11277.487138,7254.018232,-3552.988522,-79214.274493
11277.490418,0.000000,1036.288319,-77375.645298
11277.493699,-2664.741391,10955.047942,-71093.662214
11277.496979,7846.182985,1184.329507,-79980.369991
11277.500260,-4589.276840,5625.565159,-88407.420469
11277.503541,-7550.100608,4145.153275,-84270.504780
11277.506821,2664.741391,4145.153275,-69561.471218
11277.510102,-9178.553681,11991.336260,-62819.830836
11277.513382,2072.576638,11991.336260,-61134.420740
11277.516663,-9918.759623,-10807.006753,-94842.622652
11277.519944,-10658.965565,9918.759623,-79061.055394
11277.523224,-8734.430116,6365.771101,-65118.117330
11277.526505,740.205942,7254.018232,-67722.842023
11277.529786,-9918.759623,-888.247130,-80440.027290
11277.533066,-10362.883188,9770.718434,-61287.639840
11277.536347,-8882.471304,11103.089130,-62513.392637
11277.539627,-2516.700203,11399.171507,-65424.555529
11277.542908,1628.453072,2072.576638,-74158.044206
11277.546189,-444.123565,2812.782580,-84883.381178
11277.549469,4293.194464,9770.718434,-79214.274493
11277.552750,-6365.771101,0.000000,-76762.768900
11277.556030,4293.194464,10066.800811,-71400.100414
11277.559311,-31828.855506,10362.883188,-69101.813920
11277.562592,-3108.864956,10658.965565,-81972.218286
11277.565808,-17912.983796,3404.947333,-97600.566445
11277.569024,-11991.336260,3404.947333,-101584.263035
11277.572241,2664.741391,4145.153275,-98366.661943
11277.575457,-17616.901420,9178.553681,-83351.190182
11277.578673,-10362.883188,6661.853478,-78448.178995
11277.581890,-17912.983796,-6809.894666,-71400.100414
11277.585106,-6069.688724,11547.212695,-50562.302868
11277.588322,-2960.823768,11251.130318,-53933.123059
11277.591538,-6957.935855,4737.318029,-63126.269035
11277.594755,-888.247130,4737.318029,-75843.454302
11277.597971,3108.864956,8438.347739,-68029.280222
11277.601187,6069.688724,6513.812290,-75230.577904
11277.604404,5181.441594,7254.018232,-76762.768900
11277.607620,7402.059420,3404.947333,-68642.156621
11277.610836,3404.947333,12731.542202,-51021.960167
11277.614053,-4737.318029,10510.924376,-59908.667944
11277.617269,3997.112087,4441.235652,-76915.987999
11277.620485,-3701.029710,2516.700203,-90858.926063
11277.623702,-4737.318029,4737.318029,-83044.751983
11277.626918,-5921.647536,11991.336260,-73391.948708
11277.630134,4441.235652,7550.100608,-77835.302597
11277.633351,2072.576638,3701.029710,-87641.324971
11277.636567,14359.995275,2220.617826,-84270.504780
11277.639783,-4589.276840,6957.935855,-74158.044206
11277.643000,-10066.800811,5773.606348,-67876.061123
11277.646216,-3701.029710,7550.100608,-65424.555529
11277.649432,16580.613101,9326.594869,-75230.577904
11277.652649,1332.370696,-4737.318029,-82891.532884
11277.655865,-6069.688724,4441.235652,-76456.330700
11277.659081,-6809.894666,-148.041188,-60674.763442
11277.662298,9622.677246,22354.219448,-39683.746796
11277.665514,-8438.347739,-10510.924376,-85649.476676
11277.668673,-13915.871710,6809.894666,-85496.257577
11277.671841,-11399.171507,-888.247130,-90552.487864
11277.675009,5921.647536,16580.613101,-66650.308326
11277.678177,-11991.336260,-1776.494261,-79214.274493
11277.681345,-10658.965565,11843.295072,-65271.336430
11277.684513,-12435.459826,6069.688724,-66650.308326
11277.687682,-8438.347739,7254.018232,-63585.926334
11277.690850,-12731.542202,5773.606348,-82585.094684
11277.694018,1332.370696,1332.370696,-91012.145162
11277.697186,-9178.553681,6365.771101,-76456.330700
11277.700354,-16580.613101,11399.171507,-70480.785816
11277.703522,-1628.453072,4441.235652,-75383.797003
11277.706691,-11991.336260,2220.617826,-82278.656485
11277.709859,-10510.924376,8734.430116,-77375.645298
11277.713027,-9030.512492,3256.906145,-74617.701505
11277.716195,-12139.377449,8438.347739,-79827.150892
11277.719363,-7402.059420,3849.070898,-93616.869856
11277.722531,-8290.306550,-3552.988522,-104801.864126
11277.725700,-15248.242405,-2960.823768,-91165.364262
11277.728868,-2960.823768,19245.354492,-54545.999458
11277.732036,-5921.647536,3701.029710,-61747.297139
11277.735204,-5181.441594,3849.070898,-77988.521696
11277.738372,9326.594869,-2368.659014,-87488.105872
11277.741541,4441.235652,9178.553681,-63585.926334
11277.744709,-6809.894666,3997.112087,-73085.510509
11277.747877,8734.430116,9030.512492,-62973.049936
11277.751045,0.000000,148.041188,-56844.285952
11277.754213,3108.864956,15396.283594,-59295.791545
11277.757381,3997.112087,5921.647536,-79980.369991
11277.760550,3849.070898,-1628.453072,-77835.302597
11277.763718,-592.164754,7698.141797,-71859.757712
11277.766886,7698.141797,9326.594869,-63892.364533
11277.770088,9474.636058,9178.553681,-66956.746525
11277.773290,2516.700203,-592.164754,-81665.780087
11277.776493,12287.418637,5181.441594,-83351.190182
11277.779695,9770.718434,10214.842000,-73238.729609
11277.782897,-1924.535449,13767.830521,-64198.802732
11277.786099,148.041188,-740.205942,-84883.381178
11277.789302,-1776.494261,5181.441594,-89939.611465
11277.792504,12287.418637,8734.430116,-75690.235202
11277.795706,296.082377,-2960.823768,-77222.426198
11277.798908,-13175.665768,17320.819043,-80133.589091
11277.802111,2812.782580,-7698.141797,-107713.027019
11277.805313,444.123565,1036.288319,-86415.572174
11277.808515,-5329.482782,10658.965565,-66343.870127
11277.811717,-6069.688724,14359.995275,-63279.488135
11277.814920,-8882.471304,-3849.070898,-83044.751983
11277.818122,2220.617826,13175.665768,-77528.864398
11277.821324,-1184.329507,2220.617826,-83657.628382
11277.824526,-7254.018232,6069.688724,-89786.392366
11277.827729,-9326.594869,5921.647536,-81665.780087
11277.830931,-1628.453072,8290.306550,-60368.325242
11277.834133,-6661.853478,7254.018232,-64198.802732
11277.837335,-3701.029710,10510.924376,-77682.083497
11277.840538,-13323.706956,5773.606348,-76303.111601
11277.843740,2812.782580,1332.370696,-90092.830565
11277.846942,-2960.823768,5773.606348,-79827.150892
11277.850145,1332.370696,10510.924376,-72319.415011
11277.853347,-14063.912898,6661.853478,-71553.319513
11277.856549,6513.812290,2664.741391,-68029.280222
11277.859751,-8882.471304,3701.029710,-63585.926334
11277.862954,-12287.418637,11991.336260,-57457.162350
11277.866156,-6365.771101,2072.576638,-62360.173537
11277.869358,6661.853478,15840.407159,-71706.538613
11277.872519,-12435.459826,-7402.059420,-106027.616923
11277.875680,11991.336260,15100.201217,-87641.324971
11277.878841,14804.118840,2072.576638,-87488.105872
11277.882002,7550.100608,14656.077652,-68488.937521
11277.885163,-6809.894666,-1036.288319,-84117.285680
11277.888324,0.000000,17616.901420,-63892.364533
11277.891485,3404.947333,2516.700203,-65884.212828
11277.894646,4737.318029,2812.782580,-86875.229473
11277.897807,-2960.823768,2812.782580,-91471.802461
11277.900968,6217.729913,-888.247130,-95761.937250
11277.904129,8734.430116,6217.729913,-78141.740796
11277.907290,6217.729913,5329.482782,-76149.892501
11277.910451,2960.823768,5625.565159,-75230.577904
11277.913612,-5477.523971,3701.029710,-78754.617194
11277.916773,10214.842000,1036.288319,-83657.628382
11277.919934,5329.482782,5773.606348,-82431.875585
11277.923095,-2960.823768,1480.411884,-70480.785816
11277.926256,-13471.748144,5033.400406,-62973.049936
11277.929417,4737.318029,8438.347739,-80286.808190
11277.932578,5033.400406,8290.306550,-82125.437386
11277.935739,740.205942,-3552.988522,-92850.774358
11277.938900,0.000000,17320.819043,-87947.763170
11277.942061,11399.171507,5181.441594,-83044.751983
11277.945222,-7105.977043,5625.565159,-78754.617194
11277.948351,-5773.606348,9770.718434,-73851.606007
11277.951479,-12435.459826,-296.082377,-77375.645298
11277.954608,-7105.977043,10066.800811,-68182.499322
11277.957737,-740.205942,7846.182985,-69714.690318
11277.960865,-2516.700203,-1184.329507,-79980.369991
11277.963994,-11251.130318,8290.306550,-91778.240660
11277.967123,-9770.718434,-148.041188,-85189.819378
11277.970251,-444.123565,1332.370696,-79827.150892
11277.973380,-17912.983796,9918.759623,-62053.735338
11277.976509,1036.288319,20281.642811,-60981.201641
11277.979637,-592.164754,-3256.906145,-82431.875585
11277.982766,-1924.535449,2072.576638,-91931.459760
11277.985895,-7550.100608,7105.977043,-80440.027290
11277.989023,-3404.947333,6661.853478,-77528.864398
11277.992152,-13323.706956,7698.141797,-66037.431928
11277.995281,-6661.853478,6661.853478,-79061.055394
11277.998409,-9178.553681,7550.100608,-87334.886772
11278.001538,-8882.471304,5329.482782,-87028.448573
11278.004667,-3701.029710,7846.182985,-74158.044206
11278.007795,-11399.171507,-1332.370696,-83351.190182
11278.010924,8142.265362,9918.759623,-73545.167808
11278.014053,-2812.782580,1480.411884,-75996.673402
11278.017181,148.041188,10066.800811,-71553.319513
11278.020310,-3997.112087,6365.771101,-68335.718422
11278.023439,1776.494261,9918.759623,-77835.302597
11278.026567,13915.871710,-148.041188,-95608.718150
11278.029696,1036.288319,-3404.947333,-100205.291138
11278.032825,1036.288319,14804.118840,-68335.718422
11278.035953,-7402.059420,7846.182985,-55465.314055
11278.039082,7105.977043,11103.089130,-59295.791545
11278.042211,-12139.377449,2072.576638,-78448.178995
11278.045339,1628.453072,-740.205942,-86722.010374
11278.048447,-10362.883188,1924.535449,-86875.229473
11278.051554,11399.171507,6809.894666,-71859.757712
11278.054661,2664.741391,10066.800811,-67263.184724
11278.057769,2960.823768,4145.153275,-73391.948708
11278.060876,3552.988522,6365.771101,-72932.291410
11278.063984,148.041188,3997.112087,-74770.920605
11278.067091,2072.576638,4145.153275,-72625.853210
11278.070198,4441.235652,6957.935855,-66497.089226
11278.073306,-1776.494261,16432.571912,-73851.606007
11278.076413,3552.988522,4441.235652,-87181.667672
11278.079520,-5033.400406,-8734.430116,-92084.678860
11278.082628,-9770.718434,13471.748144,-81972.218286
11278.085735,-15396.283594,6809.894666,-69867.909418
11278.088843,-3552.988522,12435.459826,-63279.488135
11278.091950,444.123565,6513.812290,-76303.111601
11278.095057,-5329.482782,1776.494261,-76149.892501
11278.098165,-13027.624579,9622.677246,-76303.111601
11278.101272,-6661.853478,2812.782580,-91165.364262
11278.104380,-3256.906145,3256.906145,-83197.971083
11278.107487,-740.205942,2812.782580,-77069.207099
11278.110594,-16876.695478,10955.047942,-66037.431928
11278.113702,-21910.095883,10955.047942,-64964.898230
11278.116809,-14804.118840,5625.565159,-69714.690318
11278.119916,-15544.324782,7698.141797,-83657.628382
11278.123024,2664.741391,1184.329507,-91165.364262
11278.126131,-7402.059420,8438.347739,-74464.482406
11278.129239,-12435.459826,7698.141797,-77222.426198
11278.132346,-4589.276840,5625.565159,-80899.684589
11278.135453,-14952.160028,-2812.782580,-81818.999186
11278.138561,-3849.070898,18061.024985,-57916.819649
11278.141668,-2220.617826,2960.823768,-69255.033019
11278.144775,1036.288319,9326.594869,-78141.740796
11278.147868,7846.182985,-1924.535449,-90092.830565
11278.150961,4885.359217,8882.471304,-77069.207099
11278.154054,-1036.288319,-1924.535449,-79520.712692
11278.157147,7994.224174,13471.748144,-63432.707234
11278.160240,3997.112087,3404.947333,-63432.707234
11278.163333,2960.823768,8734.430116,-74158.044206
11278.166426,3552.988522,6809.894666,-85496.257577
11278.169519,12731.542202,-2220.617826,-81359.341888
11278.172612,-10955.047942,7402.059420,-76149.892501
11278.175705,7254.018232,12139.377449,-72625.853210
11278.178797,9178.553681,6513.812290,-72932.291410
11278.181890,-13915.871710,3997.112087,-83810.847481
11278.184983,7550.100608,2812.782580,-82431.875585
11278.188076,-1628.453072,7846.182985,-80746.465489
11278.191169,-10362.883188,8438.347739,-74311.263306
11278.194262,3404.947333,7846.182985,-85496.257577
11278.197355,-2368.659014,-444.123565,-84883.381178
11278.200448,9326.594869,4885.359217,-72472.634111
11278.203541,888.247130,18357.107362,-76149.892501
11278.206634,5477.523971,8734.430116,-80593.246390
11278.209727,-7105.977043,-5477.523971,-97753.785545
11278.212820,-1184.329507,8438.347739,-71553.319513
11278.215912,-16136.489536,5181.441594,-55158.875856
11278.219005,-8290.306550,12583.501014,-61440.858940
11278.222098,-296.082377,3849.070898,-67876.061123
11278.225191,-9622.677246,592.164754,-80133.589091
11278.228284,-11695.253884,6069.688724,-90858.926063
11278.231377,-888.247130,1480.411884,-83810.847481
11278.234470,-5921.647536,8734.430116,-62819.830836
11278.237563,9622.677246,6365.771101,-68948.594820
11278.240656,2220.617826,14359.995275,-70787.224015
11278.243749,-10214.842000,1036.288319,-82278.656485
11278.246833,-10658.965565,3997.112087,-80899.684589
11278.249916,-296.082377,7550.100608,-70634.004916
11278.253000,-5625.565159,2368.659014,-64964.898230
11278.256084,-18209.066173,7402.059420,-69867.909418
11278.259168,444.123565,9030.512492,-83351.190182
11278.262252,-4293.194464,2960.823768,-87028.448573
11278.265336,-10658.965565,1184.329507,-82431.875585
11278.268420,1184.329507,2368.659014,-73085.510509
11278.271503,-2664.741391,10955.047942,-54086.342159
11278.274587,5625.565159,3997.112087,-61440.858940
11278.277671,3849.070898,7254.018232,-68795.375720
11278.280755,-5625.565159,4885.359217,-77682.083497
11278.283839,-5625.565159,10066.800811,-82278.656485
11278.286923,11251.130318,-2960.823768,-95149.060852
11278.290007,-3552.988522,-2220.617826,-78754.617194
11278.293090,1332.370696,13619.789333,-79214.274493
11278.296174,-7402.059420,11103.089130,-67569.622924
11278.299258,-11251.130318,3552.988522,-69255.033019
11278.302342,18801.230927,2516.700203,-79061.055394
11278.305426,22650.301825,4885.359217,-73698.386908
11278.308510,-4293.194464,9178.553681,-66190.651027
11278.311594,16136.489536,-444.123565,-69714.690318
11278.314677,9474.636058,8142.265362,-62360.173537
11278.317761,-5181.441594,7846.182985,-61287.639840
11278.320845,6809.894666,5921.647536,-68029.280222
11278.323929,6365.771101,9622.677246,-74770.920605
11278.327013,10807.006753,4441.235652,-72472.634111
11278.330097,5921.647536,15692.365970,-88407.420469
11278.333181,-592.164754,-4589.276840,-98060.223744
11278.336264,-5921.647536,12731.542202,-76456.330700
11278.339348,-6809.894666,3256.906145,-75996.673402
11278.342432,-22206.178260,10362.883188,-75537.016103
11278.345511,-9474.636058,6365.771101,-84423.723880
11278.348590,-3701.029710,11547.212695,-89326.735067
11278.351669,-16432.571912,-3108.864956,-97753.785545
11278.354749,-8882.471304,6513.812290,-81512.560987
11278.357828,-11251.130318,4589.276840,-72319.415011
11278.360907,-11991.336260,7105.977043,-67416.403824
11278.363986,-19393.395680,1628.453072,-87641.324971
11278.367065,3552.988522,10214.842000,-76149.892501
11278.370144,-17616.901420,8586.388927,-61287.639840
11278.373223,6217.729913,11547.212695,-71400.100414
11278.376302,-3108.864956,-1332.370696,-76762.768900
11278.379381,-5181.441594,3256.906145,-85036.600278
11278.382460,-7402.059420,9770.718434,-72625.853210
11278.385539,888.247130,13471.748144,-60215.106143
11278.388618,1036.288319,2812.782580,-64198.802732
11278.391698,-6957.935855,2072.576638,-78601.398095
11278.394777,-9178.553681,1924.535449,-82431.875585
11278.397856,7402.059420,12287.418637,-70787.224015
11278.400935,5329.482782,1332.370696,-68795.375720
11278.404014,4441.235652,12435.459826,-71246.881314
11278.407093,-6365.771101,4737.318029,-85036.600278
11278.410172,-5477.523971,3552.988522,-95915.156350
11278.413251,1184.329507,-3701.029710,-100052.072039
11278.416330,-1036.288319,-1924.535449,-100205.291138
11278.419409,-1332.370696,14359.995275,-68795.375720
11278.422488,-8882.471304,10955.047942,-56997.505051
11278.425568,-15100.201217,7698.141797,-71246.881314
11278.428647,15248.242405,2368.659014,-89633.173266
11278.431726,8586.388927,-592.164754,-85955.914876
11278.434805,-2960.823768,7105.977043,-88560.639569
11278.437884,10807.006753,7698.141797,-80746.465489
11278.440963,3701.029710,5921.647536,-68795.375720
11278.444041,3552.988522,7402.059420,-62206.954438
11278.447118,3552.988522,10066.800811,-63739.145434
11278.450196,444.123565,-3552.988522,-65884.212828
11278.453274,-148.041188,7846.182985,-56844.285952
11278.456351,-592.164754,6513.812290,-59449.010645
11278.459429,4885.359217,9474.636058,-61287.639840
11278.462507,-5181.441594,-5921.647536,-88254.201370
11278.465584,-3404.947333,7994.224174,-82125.437386
11278.468662,-13175.665768,-2368.659014,-78141.740796
11278.471740,3108.864956,16432.571912,-55618.533155
11278.474818,2664.741391,2812.782580,-73391.948708
11278.477895,-17912.983796,3997.112087,-80593.246390
11278.480973,-4441.235652,7550.100608,-87181.667672
11278.484051,-2516.700203,0.000000,-81359.341888
11278.487128,1184.329507,6957.935855,-71246.881314
11278.490206,-5477.523971,5329.482782,-70634.004916
11278.493284,-12287.418637,5921.647536,-78294.959896
11278.496361,-10658.965565,1924.535449,-85649.476676
11278.499439,-4737.318029,6365.771101,-78294.959896
11278.502517,-3108.864956,9030.512492,-66190.651027
11278.505594,-20725.766376,7402.059420,-64964.898230
11278.508672,-4293.194464,9918.759623,-79367.493593
11278.511750,592.164754,-296.082377,-85343.038477
11278.514827,-11843.295072,4885.359217,-73238.729609
11278.517905,888.247130,11251.130318,-67263.184724
11278.520983,3849.070898,5477.523971,-64658.460031
11278.524061,-148.041188,7994.224174,-64198.802732
11278.527138,3701.029710,2072.576638,-84117.285680
11278.530216,2664.741391,5477.523971,-83810.847481
11278.533294,-1776.494261,3404.947333,-78754.617194
11278.536371,10510.924376,8882.471304,-68488.937521
11278.539449,444.123565,3404.947333,-62513.392637
11278.542585,-4441.235652,16136.489536,-54086.342159
11278.545720,-1036.288319,6513.812290,-70021.128517
11278.548856,-6069.688724,4145.153275,-76609.549800
11278.551992,19985.560434,6217.729913,-95455.499051
11278.555128,33309.267390,5477.523971,-93310.431656
11278.558263,-2072.576638,-1776.494261,-74158.044206
11278.561399,-148.041188,8734.430116,-49949.426470
11278.564535,3849.070898,16136.489536,-56997.505051
11278.567671,3256.906145,1332.370696,-103269.673130
11278.570806,6217.729913,-6069.688724,-123034.936979
11278.573942,592.164754,-15100.201217,-118285.144891
11278.577078,-4293.194464,13915.871710,-68642.156621
11278.580214,-5921.647536,4145.153275,-53320.246661
11278.583349,-444.123565,5773.606348,-59295.791545
11278.586485,-17024.736666,-2812.782580,-83044.751983
11278.589621,-10955.047942,10955.047942,-63432.707234
11278.592757,-11251.130318,-3404.947333,-65884.212828
11278.595892,-7994.224174,15100.201217,-56997.505051
11278.599028,-740.205942,2812.782580,-82585.094684
11278.602164,-9178.553681,3404.947333,-68948.594820
11278.605300,-5033.400406,11103.089130,-62053.735338
11278.608435,11991.336260,6069.688724,-71093.662214
11278.611571,14211.954086,5329.482782,-65577.774629
11278.614707,-13767.830521,4293.194464,-71706.538613
11278.617842,-8290.306550,9030.512492,-69714.690318
11278.620978,-5181.441594,3997.112087,-70634.004916
11278.624114,148.041188,8290.306550,-78294.959896
11278.627250,0.000000,888.247130,-79980.369991
11278.630385,-14063.912898,-592.164754,-74464.482406
11278.633521,-11547.212695,7105.977043,-60215.106143
11278.636657,-2812.782580,-1332.370696,-69714.690318
11278.639793,1480.411884,13915.871710,-80899.684589
11278.642929,-14063.912898,-4589.276840,-103882.549529
11278.646056,7402.059420,6069.688724,-93770.088955
11278.649183,7698.141797,-5181.441594,-91625.021561
11278.652310,10510.924376,14952.160028,-61134.420740
11278.655438,-1036.288319,1332.370696,-67263.184724
11278.658565,-9918.759623,15692.365970,-73085.510509
11278.661692,11399.171507,2220.617826,-80133.589091
11278.664819,11695.253884,-2960.823768,-94229.746254
11278.667946,-13915.871710,3701.029710,-85649.476676
11278.671073,-740.205942,7402.059420,-76762.768900
11278.674200,17024.736666,7402.059420,-69714.690318
11278.677328,4293.194464,4145.153275,-75690.235202
11278.680455,-444.123565,592.164754,-82125.437386
11278.683582,3997.112087,2220.617826,-77835.302597
11278.686709,-296.082377,7994.224174,-59295.791545
11278.689836,4589.276840,7994.224174,-65730.993728
11278.692963,14952.160028,6069.688724,-87181.667672
11278.696090,-6809.894666,5477.523971,-83351.190182
11278.699218,3552.988522,7550.100608,-76456.330700
11278.702345,5477.523971,9178.553681,-67263.184724
11278.705472,5033.400406,9918.759623,-64198.802732
11278.708599,-5773.606348,-1776.494261,-84730.162079
11278.711726,-11399.171507,5477.523971,-79061.055394
11278.714853,-13767.830521,3404.947333,-70327.566716
11278.717973,4441.235652,11399.171507,-61900.516238
11278.721093,-4441.235652,1924.535449,-76915.987999
11278.724213,-12287.418637,5773.606348,-71706.538613
11278.727333,-4737.318029,10807.006753,-76915.987999
11278.730453,-7994.224174,2960.823768,-87488.105872
11278.733574,6661.853478,8586.388927,-84270.504780
11278.736694,5329.482782,0.000000,-96681.251848
11278.739814,-2368.659014,9918.759623,-71093.662214
11278.742934,-15100.201217,9474.636058,-59449.010645
11278.746054,3552.988522,1184.329507,-83504.409282
11278.749174,-7846.182985,3256.906145,-82891.532884
11278.752294,-15248.242405,6217.729913,-80899.684589
11278.755414,-1776.494261,4589.276840,-78141.740796
11278.758534,-9030.512492,296.082377,-71553.319513
11278.761654,-4293.194464,20873.807564,-69408.252119
11278.764774,-20133.601622,-5181.441594,-95455.499051
11278.767894,-2516.700203,9622.677246,-86875.229473
11278.771014,9178.553681,-148.041188,-90858.926063
11278.774134,7994.224174,11843.295072,-74770.920605
11278.777254,-10807.006753,-2368.659014,-76762.768900
11278.780374,-2072.576638,21021.848753,-62053.735338
11278.783494,9178.553681,1776.494261,-79367.493593
11278.786614,1332.370696,4441.235652,-81206.122788
11278.789734,-7254.018232,5033.400406,-91778.240660
11278.792854,-3552.988522,5477.523971,-79827.150892
11278.795974,592.164754,9622.677246,-66037.431928
11278.799094,2516.700203,6365.771101,-78294.959896
11278.802214,-10362.883188,6513.812290,-83964.066581
11278.805334,-11251.130318,6217.729913,-70327.566716
11278.808454,-5181.441594,13619.789333,-77528.864398
11278.811574,3849.070898,3256.906145,-100511.729338
11278.814694,2368.659014,4737.318029,-103882.549529
11278.817866,-1924.535449,-5921.647536,-89633.173266
11278.821037,-3552.988522,12731.542202,-93923.308055
11278.824208,-7402.059420,1184.329507,-65577.774629
11278.827380,-5329.482782,15840.407159,-45199.634382
11278.830551,-14656.077652,-2220.617826,-84270.504780
11278.833723,-17024.736666,3997.112087,-84423.723880
11278.836894,-5181.441594,1184.329507,-68642.156621
11278.840066,-2368.659014,19097.313304,-58376.476948
11278.843237,-10214.842000,6069.688724,-76303.111601
11278.846408,-11991.336260,0.000000,-88407.420469
11278.849580,-6217.729913,4441.235652,-72166.195912
11278.852751,7254.018232,12287.418637,-47804.359075
11278.855923,-13767.830521,11991.336260,-52247.712964
11278.859094,5181.441594,10807.006753,-59449.010645
11278.862266,-19837.519246,3404.947333,-81972.218286
11278.865437,1480.411884,-2812.782580,-87794.544071
11278.868608,-888.247130,12879.583391,-65577.774629
11278.871780,-22206.178260,8882.471304,-66650.308326
11278.874951,-1628.453072,10510.924376,-63892.364533
11278.878123,-8438.347739,148.041188,-79673.931792
11278.881294,-4885.359217,11399.171507,-86568.791274
11278.884465,-6069.688724,-4737.318029,-101124.605736
11278.887637,-6661.853478,11991.336260,-77988.521696
11278.890808,-3552.988522,6809.894666,-73238.729609
11278.893980,4145.153275,8734.430116,-82125.437386
11278.897151,-12731.542202,-888.247130,-85036.600278
11278.900323,-3108.864956,12583.501014,-75383.797003
11278.903494,5477.523971,1184.329507,-90399.268764
11278.906665,-5625.565159,-3997.112087,-89020.296868
11278.909837,3849.070898,13027.624579,-61287.639840
11278.913008,-148.041188,6217.729913,-70327.566716
11278.916180,-8438.347739,7846.182985,-58989.353346
11278.919393,22946.384202,5181.441594,-70174.347617
11278.922607,-740.205942,-444.123565,-70174.347617
11278.925821,-7254.018232,8882.471304,-66497.089226
11278.929034,4589.276840,6809.894666,-65271.336430
11278.932248,8142.265362,6809.894666,-64964.898230
11278.935462,4737.318029,10066.800811,-64198.802732
11278.938675,-3404.947333,1332.370696,-79061.055394
11278.941889,1184.329507,11547.212695,-85343.038477
11278.945103,-3849.070898,-3849.070898,-76915.987999
11278.948316,-1332.370696,5477.523971,-70021.128517
11278.951530,-5773.606348,7254.018232,-67416.403824
11278.954744,-22502.260637,12435.459826,-73391.948708
11278.957957,-5329.482782,-7846.182985,-91012.145162
11278.961171,-3997.112087,14508.036463,-67109.965625
11278.964384,-6069.688724,5921.647536,-74617.701505
11278.967598,-11251.130318,6217.729913,-75996.673402
11278.970812,-12879.583391,2368.659014,-82585.094684
11278.974025,8142.265362,6661.853478,-68795.375720
11278.977239,3256.906145,6365.771101,-67722.842023
11278.980453,-18505.148550,10658.965565,-71859.757712
11278.983666,-2664.741391,5329.482782,-80899.684589
11278.986880,-444.123565,888.247130,-82431.875585
11278.990094,-5921.647536,4293.194464,-73545.167808
11278.993307,-8438.347739,9326.594869,-69408.252119
11278.996521,-10214.842000,5625.565159,-66956.746525
11278.999735,-8586.388927,2812.782580,-65424.555529
11279.002948,-9474.636058,17468.860231,-57150.724151
11279.006162,-2220.617826,1628.453072,-79980.369991
11279.009376,7402.059420,6217.729913,-94382.965354
11279.012589,14211.954086,-3404.947333,-95608.718150
11279.015803,9770.718434,13175.665768,-64198.802732
11279.019017,-7105.977043,9030.512492,-62053.735338
11279.022212,3552.988522,17616.901420,-56078.190454
11279.025407,6513.812290,-4145.153275,-83964.066581
11279.028602,4885.359217,3552.988522,-86568.791274
11279.031797,-6069.688724,8586.388927,-78141.740796
11279.034993,7994.224174,5329.482782,-82125.437386
11279.038188,7994.224174,7105.977043,-87028.448573
11279.041383,5329.482782,-4589.276840,-108325.903417
11279.044578,6809.894666,8290.306550,-79827.150892
11279.047774,-16876.695478,8142.265362,-51941.274764
11279.050969,12139.377449,6809.894666,-66343.870127
11279.054164,-2960.823768,-2220.617826,-89479.954166
11279.057359,-18801.230927,-2516.700203,-91318.583362
11279.060554,740.205942,10658.965565,-66803.527426
11279.063750,-4145.153275,17024.736666,-61747.297139
11279.066945,4293.194464,1480.411884,-83657.628382
11279.070140,-740.205942,-8882.471304,-100205.291138
11279.073335,-10658.965565,16432.571912,-76149.892501
11279.076531,-18653.189738,11547.212695,-46578.606278
11279.079726,8586.388927,14656.077652,-52860.589362
11279.082921,-888.247130,-5181.441594,-85343.038477
11279.086116,-8438.347739,3552.988522,-62666.611736
11279.089311,-11399.171507,12287.418637,-52094.493864
11279.092507,-7105.977043,5181.441594,-76303.111601
11279.095702,-4441.235652,7105.977043,-81512.560987
11279.098897,-17912.983796,-7846.182985,-104495.425927
11279.102092,-19393.395680,16136.489536,-67569.622924
11279.105288,-7994.224174,11547.212695,-53013.808462
11279.108483,3552.988522,592.164754,-79980.369991
11279.111678,-15248.242405,740.205942,-93770.088955
11279.114873,-17024.736666,148.041188,-93003.993457
11279.118068,-5329.482782,3849.070898,-56997.505051
11279.121264,-11991.336260,22946.384202,-41369.156892
11279.124497,296.082377,-2368.659014,-90858.926063
11279.127730,12731.542202,4737.318029,-103422.892230
11279.130963,3256.906145,-10807.006753,-97907.004644
11279.134196,8142.265362,12287.418637,-66497.089226
11279.137430,4885.359217,3404.947333,-59602.229744
11279.140663,-2220.617826,21021.848753,-53779.903960
11279.143896,8882.471304,148.041188,-96987.690047
11279.147129,-2812.782580,-3997.112087,-99285.976541
11279.150362,-13619.789333,4441.235652,-87947.763170
11279.153596,6809.894666,4737.318029,-72625.853210
11279.156829,-7994.224174,4145.153275,-70634.004916
11279.160062,-8882.471304,11103.089130,-74158.044206
11279.163295,11991.336260,3849.070898,-81052.903688
11279.166528,-5329.482782,4737.318029,-80593.246390
11279.169761,1776.494261,5477.523971,-84117.285680
11279.172995,11251.130318,6957.935855,-83657.628382
11279.176228,-9622.677246,-296.082377,-75843.454302
11279.179461,-3256.906145,9030.512492,-62206.954438
11279.182694,-1036.288319,7550.100608,-64811.679131
11279.185927,-3256.906145,12435.459826,-49183.330972
11279.189161,-19097.313304,-444.123565,-79061.055394
11279.192394,-5773.606348,8734.430116,-83964.066581
11279.195627,-16136.489536,-1924.535449,-74924.139704
11279.198860,-1184.329507,13915.871710,-54852.437657
11279.202093,7402.059420,5033.400406,-67416.403824
11279.205326,-15988.448347,9030.512492,-55924.971354
11279.208560,-10658.965565,10066.800811,-72319.415011
11279.211793,2072.576638,-5181.441594,-91165.364262
11279.215026,-13619.789333,5329.482782,-66650.308326
11279.218259,740.205942,6217.729913,-62666.611736
11279.221492,-18505.148550,4441.235652,-70940.443115
11279.224726,-16580.613101,1184.329507,-69867.909418
11279.227989,-3108.864956,6513.812290,-71553.319513
11279.231253,-10807.006753,5921.647536,-70327.566716
11279.234517,-6809.894666,5477.523971,-82125.437386
11279.237781,-14952.160028,-3108.864956,-86415.572174
11279.241045,2072.576638,2072.576638,-80286.808190
11279.244309,-1184.329507,6957.935855,-71400.100414
11279.247573,9770.718434,9622.677246,-70174.347617
11279.250837,5181.441594,-1332.370696,-78294.959896
11279.254101,-296.082377,12435.459826,-70480.785816
11279.257365,1924.535449,5033.400406,-77528.864398
11279.260629,14656.077652,9030.512492,-80440.027290
11279.263893,-1332.370696,1332.370696,-74770.920605
11279.267157,12435.459826,7254.018232,-81972.218286
11279.270421,-7994.224174,2220.617826,-85496.257577
11279.273684,1480.411884,8734.430116,-72779.072310
11279.276948,12879.583391,5625.565159,-79214.274493
11279.280212,4885.359217,2664.741391,-79061.055394
11279.283476,1332.370696,5773.606348,-72166.195912
11279.286740,1184.329507,2072.576638,-73085.510509
11279.290004,-3108.864956,7402.059420,-74770.920605
11279.293268,2960.823768,7254.018232,-73085.510509
11279.296532,-2220.617826,4145.153275,-65730.993728
11279.299796,4589.276840,16284.530724,-74311.263306
11279.303060,15988.448347,2368.659014,-91012.145162
11279.306324,5329.482782,6957.935855,-98673.100142
11279.309588,-12435.459826,9326.594869,-81052.903688
11279.312852,-12583.501014,12583.501014,-63739.145434
11279.316115,1924.535449,7105.977043,-63739.145434
11279.319379,-1924.535449,14359.995275,-66190.651027
11279.322643,-20725.766376,1628.453072,-83810.847481
11279.325907,-11991.336260,5181.441594,-89020.296868
11279.329171,-17172.777854,3256.906145,-82585.094684
11279.332460,14508.036463,7846.182985,-70787.224015
11279.335748,17912.983796,2812.782580,-75537.016103
11279.339036,-5329.482782,5033.400406,-66650.308326
11279.342325,-6365.771101,6809.894666,-70940.443115
11279.345613,-6217.729913,3256.906145,-82431.875585
11279.348902,-5625.565159,9030.512492,-77069.207099
11279.352190,-592.164754,6513.812290,-83504.409282
11279.355479,-21317.931130,888.247130,-77375.645298
11279.358767,-4293.194464,14508.036463,-76762.768900
11279.362055,-6809.894666,-4737.318029,-85036.600278
11279.365344,2516.700203,10510.924376,-87028.448573
11279.368632,5625.565159,3108.864956,-91625.021561
11279.371921,3404.947333,9178.553681,-75690.235202
11279.375209,-1628.453072,-7550.100608,-89020.296868
11279.378498,-3256.906145,9918.759623,-76456.330700
11279.381786,13471.748144,2368.659014,-68488.937521
11279.385074,-1184.329507,6217.729913,-65118.117330
11279.388363,-10807.006753,7550.100608,-83657.628382
11279.391651,21169.889941,2664.741391,-86262.353075
11279.394940,11399.171507,5181.441594,-80899.684589
11279.398228,9326.594869,6365.771101,-65118.117330
11279.401517,9622.677246,6069.688724,-68642.156621
11279.404805,-5329.482782,6957.935855,-76149.892501
11279.408093,7698.141797,2664.741391,-80286.808190
11279.437869,2812.782580,9622.677246,-72319.415011
11279.441178,-10658.965565,888.247130,-78294.959896
11279.444486,-24426.796086,7105.977043,-79520.712692
11279.447795,-5477.523971,4145.153275,-81206.122788
11279.451103,3404.947333,4885.359217,-75077.358804
11279.454412,-10510.924376,5773.606348,-80746.465489
11279.457720,-7402.059420,5773.606348,-87794.544071
11279.461028,-9474.636058,1036.288319,-78448.178995
11279.464337,-15544.324782,6069.688724,-61747.297139
11279.467645,9918.759623,11843.295072,-64045.583633
11279.470954,-2664.741391,1480.411884,-77988.521696
11279.474262,-22502.260637,6513.812290,-71400.100414
11279.477571,-1036.288319,-1036.288319,-80440.027290
11279.480879,11103.089130,2812.782580,-70480.785816
11279.484187,888.247130,8438.347739,-63279.488135
11279.487496,10510.924376,1628.453072,-77682.083497
11279.490804,-6957.935855,7105.977043,-72779.072310
11279.494113,-1332.370696,5625.565159,-83504.409282
11279.497421,11103.089130,3849.070898,-80899.684589
11279.500730,-5033.400406,2960.823768,-61900.516238
11279.504038,1332.370696,18061.024985,-53473.465760
11279.507346,2368.659014,-3404.947333,-87028.448573
11279.510655,-4145.153275,-592.164754,-88713.858668
11279.513963,12879.583391,9326.594869,-72932.291410
11279.517286,8882.471304,9918.759623,-71859.757712
11279.520609,-4885.359217,9918.759623,-61747.297139
11279.523932,3552.988522,2368.659014,-76609.549800
11279.527255,12435.459826,2072.576638,-76609.549800
11279.530578,888.247130,-2664.741391,-66650.308326
11279.533901,-3849.070898,12731.542202,-68029.280222
11279.537224,7254.018232,-6217.729913,-82125.437386
11279.540547,-6809.894666,12435.459826,-63126.269035
11279.543870,-5921.647536,148.041188,-78754.617194
11279.547193,-10807.006753,10658.965565,-80286.808190
11279.550516,-24426.796086,-2220.617826,-83351.190182
11279.553839,-6365.771101,8882.471304,-76303.111601
11279.557162,-9918.759623,3108.864956,-82278.656485
11279.560485,-18801.230927,9326.594869,-63739.145434
11279.563807,-8882.471304,10510.924376,-72012.976812
11279.567130,-9030.512492,1628.453072,-89786.392366
11279.570453,-1924.535449,6069.688724,-83351.190182
11279.573776,-4441.235652,6809.894666,-84576.942979
11279.577099,-12435.459826,8734.430116,-72779.072310
11279.580422,-10955.047942,8290.306550,-67876.061123
11279.583745,8438.347739,8586.388927,-65118.117330
11279.587068,-5773.606348,5921.647536,-66803.527426
11279.590391,-26647.413912,2516.700203,-75690.235202
11279.593714,-148.041188,11695.253884,-79061.055394
11279.597037,-9770.718434,-740.205942,-74158.044206
11279.600360,4737.318029,13471.748144,-70787.224015
11279.603683,16580.613101,2960.823768,-92237.897959
11279.607006,-3997.112087,11991.336260,-79061.055394
11279.610329,-4145.153275,-4441.235652,-80899.684589
11279.613652,10510.924376,11991.336260,-60674.763442
11279.616975,8882.471304,9770.718434,-60674.763442
11279.620298,4293.194464,7698.141797,-69714.690318
11279.623638,-13915.871710,1036.288319,-93923.308055
11279.626971,2960.823768,9030.512492,-82431.875585
11279.630305,10510.924376,3849.070898,-66497.089226
11279.633639,444.123565,1776.494261,-65730.993728
11279.636973,-2960.823768,8882.471304,-68335.718422
11279.640306,-5921.647536,7550.100608,-76609.549800
11279.643640,9178.553681,4293.194464,-79673.931792
11279.646974,1036.288319,740.205942,-84270.504780
11279.650308,6661.853478,16580.613101,-81512.560987
11279.653641,8142.265362,-6513.812290,-94229.746254
11279.656975,-10658.965565,12583.501014,-71400.100414
11279.660309,-7994.224174,3552.988522,-77222.426198
11279.663642,-17616.901420,13027.624579,-70021.128517
11279.666976,-24870.919651,2368.659014,-70327.566716
11279.670310,-4293.194464,8290.306550,-69255.033019
11279.673644,-7550.100608,1924.535449,-85955.914876
11279.676977,-18653.189738,7846.182985,-84117.285680
11279.680311,-14952.160028,4885.359217,-84883.381178
11279.683645,-8882.471304,3849.070898,-76456.330700
11279.686979,-10955.047942,9178.553681,-60674.763442
11279.690312,-8586.388927,7254.018232,-65424.555529
11279.693646,-13323.706956,6809.894666,-76915.987999
11279.696980,-9178.553681,4885.359217,-79367.493593
11279.700313,3997.112087,9770.718434,-76149.892501
11279.703647,-3701.029710,3552.988522,-64964.898230
11279.706981,-19097.313304,6365.771101,-58070.038748
11279.710315,-1332.370696,6069.688724,-61900.516238
11279.713648,4441.235652,4145.153275,-64964.898230
11279.716982,10658.965565,3108.864956,-58682.915147
11279.720316,5329.482782,6365.771101,-61287.639840
11279.723650,-592.164754,12287.418637,-60521.544342
11279.726983,1036.288319,-2220.617826,-87947.763170
11279.730325,20577.725188,6513.812290,-89786.392366
11279.733666,7550.100608,148.041188,-77528.864398
11279.737008,740.205942,15396.283594,-61594.078039
11279.740349,7698.141797,4589.276840,-78294.959896
11279.743690,10362.883188,-1184.329507,-81206.122788
11279.747032,15988.448347,-2072.576638,-83504.409282
11279.750373,12731.542202,10510.924376,-74158.044206
11279.753715,-3997.112087,13471.748144,-67722.842023
11279.757056,9622.677246,6365.771101,-71553.319513
11279.760397,-5625.565159,-2516.700203,-74004.825107
11279.763739,3701.029710,8142.265362,-74924.139704
11279.767080,9178.553681,7698.141797,-77375.645298
11279.770422,1480.411884,-148.041188,-84117.285680
11279.773763,-11991.336260,1184.329507,-78754.617194
11279.777104,4737.318029,10214.842000,-76762.768900
11279.780446,-444.123565,3256.906145,-85496.257577
11279.783787,-1036.288319,3701.029710,-84576.942979
11279.787129,5033.400406,10658.965565,-73851.606007
11279.790470,-17172.777854,4885.359217,-65730.993728
11279.793811,-12731.542202,12583.501014,-61747.297139
11279.797153,4737.318029,0.000000,-79520.712692
11279.800494,-2368.659014,4737.318029,-83044.751983
11279.803836,-3849.070898,1480.411884,-92084.678860
11279.807177,148.041188,4441.235652,-84883.381178
11279.810518,-14508.036463,7105.977043,-70174.347617
11279.813860,740.205942,5033.400406,-70327.566716
11279.817201,1628.453072,6217.729913,-76303.111601
11279.820543,-15248.242405,2664.741391,-77222.426198
11279.823884,-9326.594869,15692.365970,-72932.291410
11279.827225,-10362.883188,-5773.606348,-87488.105872
11279.830567,9622.677246,15100.201217,-79214.274493
11279.833908,12731.542202,-592.164754,-87794.544071
11279.837255,6365.771101,8290.306550,-80899.684589
11279.840601,-11399.171507,-2960.823768,-84576.942979
11279.843948,9326.594869,13027.624579,-68029.280222
11279.847294,11547.212695,740.205942,-74770.920605
11279.850640,-592.164754,3701.029710,-86415.572174
11279.853987,6513.812290,2072.576638,-92237.897959
11279.857333,4589.276840,-740.205942,-82431.875585
11279.860680,9622.677246,9918.759623,-73085.510509
11279.864026,17024.736666,-2664.741391,-78907.836294
11279.867373,6661.853478,5773.606348,-72319.415011
11279.870719,-16580.613101,11991.336260,-68182.499322
11279.874066,-6957.935855,2516.700203,-67722.842023
11279.877412,11399.171507,5181.441594,-77835.302597
11279.880759,-740.205942,16728.654289,-89173.515967
11279.884105,5921.647536,-4589.276840,-110011.313513
11279.887452,-4441.235652,11547.212695,-96987.690047
11279.890798,-9178.553681,9030.512492,-74004.825107
11279.894145,5329.482782,6365.771101,-82738.313784
11279.897491,-6365.771101,2220.617826,-86109.133975
11279.900838,-6957.935855,9326.594869,-72319.415011
11279.904184,-14952.160028,4885.359217,-65424.555529
11279.907531,-25463.084405,11399.171507,-69408.252119
11279.910877,-10658.965565,5921.647536,-87947.763170
11279.914223,6957.935855,-4737.318029,-100205.291138
11279.917570,-10955.047942,-1924.535449,-97753.785545
11279.920916,-2072.576638,11103.089130,-72472.634111
11279.924263,-5773.606348,7698.141797,-63126.269035
11279.927609,-13027.624579,8290.306550,-69101.813920
11279.930956,3997.112087,5773.606348,-77222.426198
11279.934302,-12139.377449,1924.535449,-75077.358804
11279.937649,-17912.983796,14952.160028,-59602.229744
11279.940995,-7105.977043,1924.535449,-73085.510509
11279.944296,9326.594869,4589.276840,-84270.504780
11279.947596,9030.512492,2368.659014,-86875.229473
11279.950897,3849.070898,10658.965565,-78448.178995
11279.954197,-888.247130,-5921.647536,-88254.201370
11279.957498,7846.182985,13323.706956,-62360.173537
11279.960798,12287.418637,6069.688724,-57150.724151
11279.964099,5773.606348,2072.576638,-75077.358804
11279.967400,-2516.700203,6661.853478,-84730.162079
11279.970700,6809.894666,-3849.070898,-79673.931792
11279.974001,14952.160028,-1776.494261,-77528.864398
11279.977301,3404.947333,15544.324782,-66497.089226
11279.980602,14804.118840,8586.388927,-75230.577904
11279.983902,9622.677246,-148.041188,-78448.178995
11279.987203,-3997.112087,2072.576638,-74158.044206
11279.990503,11399.171507,9326.594869,-67109.965625
11279.993804,-7105.977043,11251.130318,-67263.184724
11279.997104,-6957.935855,12139.377449,-52707.370262
11280.000405,-4589.276840,-7105.977043,-89939.611465
11280.003705,-6513.812290,7254.018232,-83044.751983
11280.007006,-10214.842000,1184.329507,-79367.493593
11280.010307,4885.359217,10066.800811,-72166.195912
11280.013607,-3108.864956,11251.130318,-74924.139704
11280.016908,-3849.070898,9178.553681,-65577.774629
11280.020208,-6513.812290,4145.153275,-75077.358804
11280.023509,-18357.107362,5921.647536,-73545.167808
11280.026809,444.123565,9918.759623,-62053.735338
11280.030110,-3256.906145,-3108.864956,-79367.493593
11280.033410,-14656.077652,7254.018232,-74464.482406
11280.036711,-5625.565159,6217.729913,-83657.628382
11280.040011,1924.535449,6661.853478,-84730.162079
11280.043312,-9770.718434,1480.411884,-71706.538613
11280.046612,-8882.471304,10658.965565,-66190.651027
11280.049875,-13915.871710,-592.164754,-77682.083497
11280.053138,2960.823768,16728.654289,-81972.218286
11280.056401,13915.871710,-296.082377,-90858.926063
11280.059664,4441.235652,8734.430116,-78141.740796
11280.062927,-15100.201217,5921.647536,-71553.319513
11280.066190,-1036.288319,6513.812290,-73391.948708
11280.069452,8586.388927,3552.988522,-81206.122788
11280.072715,740.205942,1184.329507,-80440.027290
11280.075978,-10658.965565,8142.265362,-70940.443115
11280.079241,8586.388927,8290.306550,-69561.471218
11280.082504,-2516.700203,3701.029710,-61900.516238
11280.085767,10510.924376,1776.494261,-81818.999186
11280.089029,-2664.741391,4589.276840,-84730.162079
11280.092292,-10214.842000,14063.912898,-78294.959896
11280.095555,1480.411884,2664.741391,-75843.454302
11280.098818,5477.523971,7550.100608,-73238.729609
11280.102081,6957.935855,18949.272115,-79061.055394
11280.105344,7105.977043,-8290.306550,-96374.813648
11280.108606,-15396.283594,7402.059420,-87641.324971
11280.111869,-10362.883188,7846.182985,-80440.027290
11280.115132,3256.906145,9030.512492,-63279.488135
11280.118395,-12583.501014,4589.276840,-66497.089226
11280.121658,-3404.947333,9030.512492,-80286.808190
11280.124921,-11103.089130,-6069.688724,-94842.622652
11280.128184,-13767.830521,7698.141797,-78601.398095
11280.131446,-19837.519246,10955.047942,-75537.016103
11280.134709,13915.871710,8882.471304,-69101.813920
11280.137972,-14211.954086,-444.123565,-77682.083497
11280.141235,-9326.594869,9622.677246,-85955.914876
11280.144498,-8586.388927,-888.247130,-83044.751983
11280.147761,-8882.471304,10066.800811,-61747.297139
11280.151023,-1036.288319,5921.647536,-65730.993728
11280.154303,-14804.118840,9474.636058,-69255.033019
11280.157583,-20577.725188,740.205942,-83044.751983
11280.160863,13471.748144,1776.494261,-83657.628382
11280.164143,11695.253884,1628.453072,-77069.207099
11280.167423,5773.606348,12435.459826,-65577.774629
11280.170702,-3108.864956,2072.576638,-75690.235202
11280.173982,-5773.606348,7105.977043,-74311.263306
11280.177262,1924.535449,8438.347739,-75077.358804
11280.180542,11547.212695,2368.659014,-71093.662214
11280.183822,-2072.576638,8882.471304,-73851.606007
11280.187101,-296.082377,4293.194464,-87794.544071
11280.190381,14063.912898,888.247130,-85955.914876
11280.193661,2368.659014,148.041188,-77682.083497
11280.196941,1332.370696,16432.571912,-66497.089226
11280.200221,6513.812290,3404.947333,-79214.274493
11280.203500,-8586.388927,148.041188,-87794.544071
11280.206780,-5625.565159,6957.935855,-75230.577904
11280.210060,6957.935855,11251.130318,-77835.302597
11280.213340,-4145.153275,9178.553681,-53933.123059
11280.216620,-14508.036463,9918.759623,-69867.909418
11280.219900,-4145.153275,-3552.988522,-92544.336158
11280.223179,-8586.388927,6809.894666,-79520.712692
11280.226459,5181.441594,5921.647536,-70021.128517
11280.229739,-1332.370696,7846.182985,-71093.662214
11280.233019,-15544.324782,4589.276840,-73698.386908
11280.236299,-6365.771101,8438.347739,-71859.757712
11280.239578,-16432.571912,1184.329507,-73238.729609
11280.242858,-2960.823768,11843.295072,-66803.527426
11280.246138,-11103.089130,0.000000,-77988.521696
11280.249418,-13471.748144,6957.935855,-85036.600278
11280.252698,-14211.954086,7550.100608,-85649.476676
11280.255977,-2220.617826,444.123565,-90092.830565
11280.259223,-4737.318029,0.000000,-73851.606007
11280.262469,-18505.148550,17468.860231,-58836.134246
11280.265715,-9770.718434,2368.659014,-70940.443115
11280.268961,18061.024985,15248.242405,-72012.976812
11280.272206,9918.759623,-2368.659014,-88867.077768
11280.275452,10807.006753,8142.265362,-83964.066581
11280.278698,-6069.688724,-1332.370696,-78294.959896
11280.281944,-9918.759623,15692.365970,-56997.505051
11280.285189,10955.047942,4145.153275,-81972.218286
11280.288435,7994.224174,740.205942,-81512.560987
11280.291681,-15544.324782,11251.130318,-74464.482406
11280.294927,-1776.494261,3997.112087,-81206.122788
11280.298173,5181.441594,2960.823768,-81818.999186
11280.301418,10066.800811,11843.295072,-70480.785816
11280.304664,12287.418637,4737.318029,-70634.004916
11280.307910,-11547.212695,9326.594869,-72779.072310
11280.311156,6957.935855,5477.523971,-80899.684589
11280.314402,14952.160028,6661.853478,-85343.038477
11280.317647,-3108.864956,-592.164754,-75843.454302
11280.320893,4145.153275,18653.189738,-46885.044478
11280.324139,-21762.054695,-7402.059420,-65118.117330
11280.327385,-19541.436869,12139.377449,-61747.297139
11280.330630,-13471.748144,-3108.864956,-78601.398095
11280.333876,-1184.329507,11695.253884,-62053.735338
11280.337095,-7994.224174,6069.688724,-69867.909418
11280.340313,-5773.606348,6661.853478,-77069.207099
11280.343531,1776.494261,-148.041188,-87794.544071
11280.346749,1184.329507,6069.688724,-89173.515967
11280.349968,4885.359217,8290.306550,-73391.948708
11280.353186,-15988.448347,5033.400406,-60368.325242
11280.356404,-21762.054695,18505.148550,-55005.656756
11280.359622,-3552.988522,3108.864956,-81665.780087
11280.362841,1776.494261,-3849.070898,-100664.948437
11280.366059,-9622.677246,2812.782580,-90092.830565
11280.369277,-12139.377449,3701.029710,-80133.589091
11280.372496,2072.576638,5625.565159,-73391.948708
11280.375714,3256.906145,6513.812290,-69714.690318
11280.378932,11695.253884,2072.576638,-68795.375720
11280.382150,-10510.924376,6957.935855,-63585.926334
11280.385369,-17616.901420,9474.636058,-69101.813920
11280.388587,19541.436869,5921.647536,-85036.600278
11280.391805,6809.894666,-148.041188,-85343.038477
11280.395023,-1036.288319,13915.871710,-71553.319513
11280.398242,-2072.576638,2220.617826,-81052.903688
11280.401460,-10214.842000,6957.935855,-67109.965625
11280.404678,2368.659014,9918.759623,-70174.347617
11280.407897,8586.388927,8290.306550,-72779.072310
11280.411115,7402.059420,7254.018232,-67569.622924
11280.414333,592.164754,-1332.370696,-73851.606007
11280.417551,1184.329507,1480.411884,-72779.072310
11280.420770,9030.512492,9178.553681,-62206.954438
11280.423988,2220.617826,18505.148550,-44586.757984
11280.427206,-25018.960840,-5477.523971,-73085.510509
11280.430424,-14063.912898,7698.141797,-70480.785816
11280.433643,-2812.782580,9030.512492,-64198.802732
11280.436861,8586.388927,7105.977043,-78141.740796
11280.440057,-2812.782580,2368.659014,-100511.729338
11280.443254,-1776.494261,-1184.329507,-98366.661943
11280.446450,148.041188,1036.288319,-75230.577904
11280.449646,-19245.354492,15248.242405,-47038.263577
11280.452843,-12287.418637,13767.830521,-59449.010645
11280.456039,-7402.059420,-8586.388927,-101124.605736
11280.459235,-22502.260637,3552.988522,-91318.583362
11280.462431,-3404.947333,2664.741391,-81052.903688
11280.465628,6069.688724,9178.553681,-58682.915147
11280.468824,-14804.118840,7402.059420,-69408.252119
11280.472020,-3108.864956,-6217.729913,-85649.476676
11280.475217,-5033.400406,444.123565,-57303.943250
11280.478413,12731.542202,18801.230927,-41062.718693
11280.481609,10807.006753,16432.571912,-53933.123059
11280.484806,-5181.441594,-6365.771101,-93310.431656
11280.488002,-4737.318029,2368.659014,-87334.886772
11280.491198,11251.130318,12287.418637,-61594.078039
11280.494395,15692.365970,8142.265362,-60061.887043
11280.497591,9178.553681,7846.182985,-82585.094684
11280.500787,-8142.265362,-1776.494261,-90092.830565
11280.503984,-13767.830521,592.164754,-81665.780087
11280.507180,13175.665768,14211.954086,-63739.145434
11280.510376,10658.965565,6661.853478,-66190.651027
11280.513572,1184.329507,3404.947333,-79673.931792
11280.516769,1036.288319,-2812.782580,-80440.027290
11280.519965,9030.512492,9918.759623,-76303.111601
11280.523161,9770.718434,-592.164754,-66956.746525
11280.526358,1924.535449,15840.407159,-48110.797274
11280.529554,-18209.066173,-4885.359217,-71093.662214
11280.532750,-15396.283594,10214.842000,-63739.145434
11280.535947,-5033.400406,-444.123565,-71706.538613
11280.539143,13027.624579,6069.688724,-74617.701505
11280.542322,-8882.471304,9770.718434,-73851.606007
11280.545501,-9474.636058,4885.359217,-72319.415011
11280.548680,-9030.512492,5033.400406,-77682.083497
11280.551859,0.000000,7846.182985,-76762.768900
11280.555038,-12287.418637,1776.494261,-71553.319513
11280.558217,-18061.024985,-2812.782580,-77069.207099
11280.561396,-9178.553681,12139.377449,-68029.280222
11280.564575,-3701.029710,3849.070898,-72472.634111
11280.567754,-9030.512492,-2220.617826,-86415.572174
11280.570933,-16580.613101,12583.501014,-88867.077768
11280.574112,-8586.388927,-3552.988522,-89939.611465
11280.577291,11103.089130,13027.624579,-88254.201370
11280.580470,-2220.617826,296.082377,-80440.027290
11280.583648,10955.047942,13915.871710,-65271.336430
11280.586827,-17912.983796,-7550.100608,-73698.386908
11280.590006,-7254.018232,11103.089130,-65424.555529
11280.593185,16580.613101,8882.471304,-77988.521696
11280.596364,8290.306550,1776.494261,-76303.111601
11280.599543,9474.636058,9770.718434,-81512.560987
11280.602722,-7550.100608,-2368.659014,-88867.077768
11280.605901,7846.182985,11251.130318,-65577.774629
11280.609080,7550.100608,12879.583391,-59908.667944
11280.612259,12583.501014,8734.430116,-84730.162079
11280.615438,-12139.377449,-296.082377,-89326.735067
11280.618617,444.123565,-444.123565,-88560.639569
11280.621796,10214.842000,9474.636058,-70940.443115
11280.624975,3256.906145,2368.659014,-74311.263306
11280.628154,-9030.512492,15692.365970,-83044.751983
11280.631333,-24870.919651,-4589.276840,-100971.386636
11280.634512,-16136.489536,2072.576638,-94536.184453
11280.637691,1776.494261,4589.276840,-81052.903688
11280.640870,-2220.617826,9622.677246,-72166.195912
11280.644021,-22946.384202,-592.164754,-85036.600278
11280.647187,-17172.777854,2368.659014,-80593.246390
11280.650352,-17172.777854,6957.935855,-62053.735338
11280.653518,-5921.647536,15100.201217,-55465.314055
11280.656683,-18061.024985,8290.306550,-70021.128517
11280.659849,-9474.636058,2812.782580,-96068.375449
11280.663014,-8290.306550,4589.276840,-85343.038477
11280.666180,5477.523971,7254.018232,-72012.976812
11280.669345,-12731.542202,9326.594869,-61594.078039
11280.672511,-7846.182985,4145.153275,-65118.117330
11280.675676,-3108.864956,1184.329507,-56384.628653
11280.678842,8734.430116,1776.494261,-60215.106143
11280.682007,1480.411884,5921.647536,-62206.954438
11280.685173,3108.864956,8290.306550,-72166.195912
11280.688338,-9474.636058,-6809.894666,-95915.156350
11280.691504,5329.482782,6957.935855,-88254.201370
11280.694670,14359.995275,-1480.411884,-70940.443115
11280.697835,-1924.535449,9030.512492,-62053.735338
11280.701001,7846.182985,9770.718434,-76456.330700
11280.704166,5477.523971,4145.153275,-76456.330700
11280.707332,16580.613101,6365.771101,-80440.027290
11280.710497,18061.024985,8734.430116,-74311.263306
11280.713663,4589.276840,2072.576638,-71859.757712
11280.716828,-5477.523971,2368.659014,-72625.853210
11280.719994,-10362.883188,14804.118840,-80440.027290
11280.723159,7105.977043,-4441.235652,-100664.948437
11280.726325,-22058.137072,12139.377449,-84883.381178
11280.729490,-23094.425390,1776.494261,-99898.852939
11280.732656,-12139.377449,5921.647536,-97294.128246
11280.735822,-16432.571912,-1332.370696,-84270.504780
11280.738987,-4145.153275,16876.695478,-53473.465760
11280.742153,-14508.036463,4885.359217,-64198.802732
11280.745308,-15692.365970,12139.377449,-62666.611736
11280.748463,-11547.212695,6661.853478,-59602.229744
11280.751619,-12731.542202,8290.306550,-72166.195912
11280.754774,-7994.224174,8438.347739,-86875.229473
11280.757930,1036.288319,3997.112087,-83351.190182
11280.761085,-6365.771101,9622.677246,-73085.510509
11280.764240,-5625.565159,10658.965565,-60061.887043
11280.767396,-6661.853478,14952.160028,-51941.274764
11280.770551,-5329.482782,4589.276840,-55924.971354
11280.773706,-20577.725188,592.164754,-70787.224015
11280.776862,1776.494261,5329.482782,-76456.330700
11280.780017,2664.741391,-2368.659014,-81206.122788
11280.783173,7550.100608,18801.230927,-68029.280222
11280.786328,0.000000,3404.947333,-75996.673402
11280.789483,11399.171507,6217.729913,-89326.735067
11280.792639,7402.059420,1184.329507,-80286.808190
11280.795794,19837.519246,10510.924376,-64964.898230
11280.798950,-6957.935855,9474.636058,-57916.819649
11280.802105,7254.018232,10066.800811,-69561.471218
11280.805260,14804.118840,6069.688724,-77528.864398
11280.808416,6661.853478,-1184.329507,-86568.791274
11280.811571,7254.018232,13323.706956,-64352.021832
11280.814727,-1776.494261,3404.947333,-74617.701505
11280.817882,3108.864956,9918.759623,-90246.049664
11280.821037,6809.894666,-5477.523971,-100358.510238
11280.824193,296.082377,6365.771101,-99898.852939
11280.827348,-21910.095883,5033.400406,-82431.875585
11280.830503,-14063.912898,15100.201217,-64505.240932
11280.833659,-6957.935855,-2664.741391,-78907.836294
11280.836814,-13323.706956,7994.224174,-81818.999186
11280.839970,-6957.935855,3997.112087,-85036.600278
11280.843125,-17468.860231,4737.318029,-79980.369991
11280.846273,-6365.771101,6069.688724,-82278.656485
11280.849421,-740.205942,9326.594869,-85036.600278
11280.852569,-7698.141797,4589.276840,-85189.819378
11280.855717,-16136.489536,9030.512492,-69408.252119
11280.858865,-9918.759623,6365.771101,-73391.948708
11280.862013,-3404.947333,2220.617826,-75843.454302
11280.865161,-12731.542202,16580.613101,-70327.566716
11280.868309,-3108.864956,3256.906145,-77988.521696
11280.871457,-5033.400406,5625.565159,-77528.864398
11280.874605,6661.853478,5921.647536,-72012.976812
11280.877753,10955.047942,12435.459826,-71246.881314
11280.880901,-10510.924376,1184.329507,-75996.673402
11280.884049,-8734.430116,6365.771101,-72472.634111
11280.887197,10362.883188,4293.194464,-79367.493593
11280.890345,1036.288319,1036.288319,-81052.903688
11280.893493,10214.842000,11103.089130,-68488.937521
11280.896641,9474.636058,888.247130,-76149.892501
11280.899789,1776.494261,5625.565159,-69561.471218
11280.902937,3849.070898,5033.400406,-76609.549800
11280.906085,9918.759623,4885.359217,-71553.319513
11280.909233,-7254.018232,4145.153275,-58223.257848
11280.912381,0.000000,5329.482782,-71093.662214
11280.915529,10362.883188,3108.864956,-84270.504780
11280.918677,2072.576638,4737.318029,-70174.347617
11280.921825,-25463.084405,6957.935855,-71553.319513
11280.924973,-5181.441594,9918.759623,-68795.375720
11280.928121,-9178.553681,2664.741391,-72625.853210
11280.931269,11991.336260,6069.688724,-70327.566716
11280.934417,3404.947333,4441.235652,-78448.178995
11280.937565,-12731.542202,8882.471304,-69101.813920
11280.940713,-13619.789333,1184.329507,-60215.106143
11280.943861,-13619.789333,6661.853478,-60521.544342
11280.947004,-2368.659014,13915.871710,-62666.611736
11280.950147,-9474.636058,-3404.947333,-94382.965354
11280.953290,-9918.759623,1332.370696,-93616.869856
11280.956433,-3108.864956,1332.370696,-102963.234931
11280.959576,148.041188,9178.553681,-86568.791274
11280.962719,-6957.935855,9770.718434,-67263.184724
11280.965862,-16876.695478,2812.782580,-75077.358804
11280.969005,1184.329507,6957.935855,-70174.347617
11280.972148,4885.359217,-3404.947333,-76609.549800
11280.975291,2072.576638,13323.706956,-68488.937521
11280.978434,-1628.453072,-592.164754,-81359.341888
11280.981577,6217.729913,10066.800811,-80286.808190
11280.984720,5625.565159,4737.318029,-80899.684589
11280.987863,7105.977043,1924.535449,-80440.027290
11280.991006,-4145.153275,5477.523971,-83504.409282
11280.994149,-5477.523971,11251.130318,-66037.431928
11280.997292,7698.141797,4737.318029,-69867.909418
11281.000435,9622.677246,6217.729913,-77375.645298
11281.003578,6365.771101,3404.947333,-77682.083497
11281.006721,-9770.718434,2368.659014,-77988.521696
11281.009864,-592.164754,9030.512492,-79520.712692
11281.013007,19837.519246,3997.112087,-77835.302597
11281.016150,-7550.100608,10807.006753,-74158.044206
11281.019293,-17320.819043,7402.059420,-77375.645298
11281.022436,-4293.194464,7698.141797,-82125.437386
11281.025579,-6365.771101,-5033.400406,-89173.515967
11281.028722,-7254.018232,5033.400406,-89020.296868
11281.031865,-9178.553681,7402.059420,-78141.740796
11281.035008,-19541.436869,5773.606348,-66497.089226
11281.038151,-4737.318029,6069.688724,-68642.156621
11281.041294,3404.947333,5329.482782,-83197.971083
11281.044437,-5773.606348,-3108.864956,-88867.077768
11281.047577,-12435.459826,7698.141797,-78294.959896
11281.050717,2220.617826,6513.812290,-70480.785816
11281.053856,-10510.924376,3997.112087,-76149.892501
11281.056996,-2072.576638,14656.077652,-84883.381178
11281.060136,-16136.489536,-5477.523971,-91931.459760
11281.063276,-5477.523971,10214.842000,-74617.701505
11281.066416,12879.583391,3997.112087,-79673.931792
11281.069556,10955.047942,14508.036463,-73238.729609
11281.072696,-9030.512492,-3701.029710,-95149.060852
11281.075836,4145.153275,8882.471304,-82431.875585
11281.078976,296.082377,4293.194464,-70480.785816
11281.082116,13323.706956,4885.359217,-76303.111601
11281.085256,-3849.070898,7402.059420,-81052.903688
11281.088395,9474.636058,7105.977043,-79827.150892
11281.091535,7846.182985,888.247130,-75077.358804
11281.094675,8142.265362,1776.494261,-72472.634111
11281.097815,-1184.329507,9770.718434,-63585.926334
11281.100955,-14952.160028,9178.553681,-58223.257848
11281.104095,10807.006753,16876.695478,-71246.881314
11281.107235,13027.624579,-7846.182985,-98366.661943
11281.110375,-15396.283594,7254.018232,-100358.510238
11281.113515,-10807.006753,11695.253884,-77988.521696
11281.116655,-9326.594869,14063.912898,-69714.690318
11281.119794,-1628.453072,-888.247130,-86415.572174
11281.122931,1036.288319,1036.288319,-86109.133975
11281.126068,-21465.972318,4885.359217,-73851.606007
11281.129204,-12731.542202,7846.182985,-57916.819649
11281.132341,-1924.535449,5625.565159,-68642.156621
11281.135478,1332.370696,4885.359217,-94076.527154
11281.138614,-9326.594869,-2812.782580,-94536.184453
11281.141751,-14063.912898,3256.906145,-83810.847481
11281.144888,-5625.565159,3404.947333,-56078.190454
11281.148024,-14063.912898,9178.553681,-54086.342159
11281.151161,6661.853478,12435.459826,-68795.375720
11281.154298,-12287.418637,-5477.523971,-85343.038477
11281.157434,-4589.276840,7402.059420,-73238.729609
11281.160571,22058.137072,-2220.617826,-79061.055394
11281.163708,4589.276840,10362.883188,-56997.505051
11281.166844,444.123565,3849.070898,-72625.853210
11281.169981,5921.647536,6513.812290,-83504.409282
11281.173118,1480.411884,2812.782580,-87947.763170
11281.176254,444.123565,3256.906145,-72319.415011
11281.179391,-3997.112087,10807.006753,-67569.622924
11281.182527,-9622.677246,6957.935855,-75383.797003
11281.185664,12879.583391,3404.947333,-90552.487864
11281.188801,148.041188,-1776.494261,-95761.937250
11281.191937,3552.988522,11103.089130,-81972.218286
11281.195074,-2368.659014,8438.347739,-76915.987999
11281.198211,5625.565159,-5033.400406,-81665.780087
11281.201347,2516.700203,592.164754,-75996.673402
11281.204484,-21614.013506,9178.553681,-66803.527426
11281.207621,-9918.759623,15248.242405,-52400.932063
11281.210757,-16432.571912,7105.977043,-71093.662214
11281.213894,9770.718434,5329.482782,-85955.914876
11281.217031,-2960.823768,-1776.494261,-90705.706963
11281.220167,-18209.066173,8734.430116,-65730.993728
11281.223304,10807.006753,8142.265362,-55618.533155
11281.226441,-13323.706956,1480.411884,-64045.583633
11281.229577,-9474.636058,6069.688724,-70327.566716
11281.232714,-11399.171507,3552.988522,-67876.061123
11281.235851,-18505.148550,10362.883188,-59602.229744
11281.238988,-9622.677246,1184.329507,-72472.634111
11281.242124,-4145.153275,5921.647536,-99439.195640
11281.245261,-6809.894666,-4293.194464,-99898.852939
11281.248398,7402.059420,11547.212695,-71706.538613
11281.251535,3108.864956,2960.823768,-77069.207099
11281.254671,-1036.288319,9474.636058,-81206.122788
11281.257808,-1036.288319,592.164754,-89020.296868
11281.260945,-9770.718434,3997.112087,-67416.403824
11281.264082,3552.988522,12435.459826,-63585.926334
11281.267218,8142.265362,2516.700203,-79061.055394
11281.270355,7698.141797,-1924.535449,-85343.038477
11281.273492,-6069.688724,-2072.576638,-95915.156350
11281.276629,9326.594869,11695.253884,-58529.696047
11281.279765,22798.343014,14508.036463,-43820.662486
11281.282902,1776.494261,1184.329507,-72472.634111
11281.286039,-296.082377,-148.041188,-82738.313784
11281.289176,4293.194464,14359.995275,-54852.437657
11281.292312,7698.141797,9918.759623,-36619.364804
11281.295449,-888.247130,15988.448347,-71093.662214
11281.298586,-13619.789333,-3701.029710,-118285.144891
11281.301723,-17912.983796,8438.347739,-99898.852939
11281.304859,-6365.771101,5181.441594,-70327.566716
11281.307996,-6957.935855,12435.459826,-63892.364533
11281.311133,-16580.613101,2664.741391,-86415.572174
11281.314270,-11991.336260,1036.288319,-85036.600278
11281.317406,-16284.530724,1036.288319,-75537.016103
11281.320543,-2072.576638,13471.748144,-66956.746525
11281.323723,-2368.659014,-2516.700203,-87488.105872
11281.326903,-13323.706956,148.041188,-88867.077768
11281.330083,-2664.741391,1480.411884,-72625.853210
11281.333263,-1924.535449,14952.160028,-48723.673673
11281.336444,-1332.370696,8882.471304,-63585.926334
11281.339624,-444.123565,-8290.306550,-99285.976541
11281.342804,-1332.370696,3849.070898,-74770.920605
11281.345984,3849.070898,10066.800811,-50409.083768
11281.349164,5773.606348,14359.995275,-48570.454573
11281.352344,1184.329507,2960.823768,-73085.510509
11281.355524,888.247130,3997.112087,-88100.982270
11281.358704,6069.688724,5773.606348,-77682.083497
11281.361884,-5181.441594,7698.141797,-70174.347617
11281.365064,4145.153275,9770.718434,-71093.662214
11281.368244,1184.329507,10066.800811,-81359.341888
11281.371425,11251.130318,3404.947333,-87181.667672
11281.374605,11991.336260,2220.617826,-83504.409282
11281.377785,2220.617826,6365.771101,-72932.291410
11281.380965,-8438.347739,12731.542202,-65884.212828
11281.384145,1184.329507,-296.082377,-73851.606007
11281.387325,3256.906145,8734.430116,-80746.465489
11281.390505,-12139.377449,-444.123565,-87641.324971
11281.393685,-27535.661042,13175.665768,-78448.178995
11281.396865,-8438.347739,-2220.617826,-75077.358804
11281.400045,-9622.677246,14359.995275,-52247.712964
11281.403225,-17764.942608,7402.059420,-71400.100414
11281.406406,-1184.329507,6661.853478,-83197.971083
11281.409586,-9770.718434,-2812.782580,-89173.515967
11281.412766,7994.224174,9918.759623,-76609.549800
11281.415946,-17024.736666,2812.782580,-62360.173537
11281.419126,-13915.871710,10066.800811,-55005.656756
11281.422306,-10955.047942,11103.089130,-60215.106143
11281.425522,-14508.036463,5921.647536,-64964.898230
11281.428739,5477.523971,1924.535449,-79827.150892
11281.431955,-1924.535449,0.000000,-85802.695776
11281.435172,3256.906145,12435.459826,-67722.842023
11281.438388,5625.565159,6069.688724,-65577.774629
11281.441604,6069.688724,10066.800811,-59449.010645
11281.444821,4441.235652,296.082377,-77682.083497
11281.448037,-2960.823768,6809.894666,-84117.285680
11281.451254,8586.388927,6661.853478,-69255.033019
11281.454470,23242.466579,7254.018232,-63739.145434
11281.457687,-7402.059420,1332.370696,-80593.246390
11281.460903,7402.059420,2664.741391,-83197.971083
11281.464119,15544.324782,1480.411884,-85343.038477
11281.467336,-6661.853478,5329.482782,-66343.870127
11281.470552,3997.112087,8438.347739,-67722.842023
11281.473769,-2516.700203,9326.594869,-85036.600278
11281.476985,-3256.906145,-7254.018232,-97753.785545
11281.480201,148.041188,11695.253884,-99745.633840
11281.483418,-13471.748144,5033.400406,-91165.364262
11281.486634,-16876.695478,15396.283594,-79214.274493
11281.489851,-14359.995275,-6069.688724,-85343.038477
11281.493067,-11251.130318,10362.883188,-65271.336430
11281.496283,-10807.006753,5921.647536,-70021.128517
11281.499500,-11251.130318,5181.441594,-71093.662214
11281.502716,-17912.983796,1184.329507,-85189.819378
11281.505933,-888.247130,12731.542202,-80286.808190
11281.509149,-9918.759623,1332.370696,-75843.454302
11281.512365,-13471.748144,12139.377449,-74004.825107
11281.515582,-10362.883188,3552.988522,-78294.959896
11281.518798,-9474.636058,6809.894666,-87334.886772
11281.522015,-7105.977043,2812.782580,-68029.280222
11281.525231,1628.453072,9918.759623,-60368.325242
11281.528478,5921.647536,2072.576638,-61287.639840
11281.531724,1628.453072,4885.359217,-63279.488135
11281.534971,7105.977043,5921.647536,-70634.004916
11281.538217,9326.594869,7846.182985,-68948.594820
11281.541464,2220.617826,6513.812290,-77222.426198
11281.544711,11251.130318,444.123565,-74924.139704
11281.547957,-6365.771101,4145.153275,-65577.774629
11281.551204,4145.153275,10510.924376,-67722.842023
11281.554450,-740.205942,6069.688724,-71706.538613
11281.557697,7254.018232,1924.535449,-70940.443115
11281.560943,2072.576638,1184.329507,-75996.673402
11281.564190,-3108.864956,7254.018232,-72625.853210
11281.567437,3552.988522,11103.089130,-78141.740796
11281.570683,3404.947333,592.164754,-84117.285680
11281.573930,5921.647536,8734.430116,-93770.088955
11281.577176,-10955.047942,8586.388927,-80286.808190
11281.580423,-14804.118840,3997.112087,-86568.791274
11281.583670,8586.388927,5329.482782,-83810.847481
11281.586916,-7550.100608,6217.729913,-72932.291410
11281.590163,-16284.530724,10214.842000,-71859.757712
11281.593409,-21169.889941,7254.018232,-77682.083497
11281.596656,-23686.590144,5329.482782,-80746.465489
11281.599903,-7105.977043,8734.430116,-90399.268764
11281.603149,-5625.565159,2072.576638,-91318.583362
11281.606396,-17172.777854,10066.800811,-76149.892501
11281.609642,-10807.006753,4145.153275,-76303.111601
11281.612889,-5033.400406,9030.512492,-75077.358804
11281.616135,-14804.118840,-2220.617826,-76609.549800
11281.619382,5921.647536,14656.077652,-63739.145434
11281.622629,7254.018232,2072.576638,-75996.673402
11281.625875,296.082377,10955.047942,-81206.122788
11281.629122,12583.501014,444.123565,-85189.819378
11281.632378,-4145.153275,11991.336260,-66497.089226
11281.635649,-2072.576638,7698.141797,-71093.662214
11281.638921,0.000000,1628.453072,-77528.864398
11281.642192,5773.606348,4737.318029,-72625.853210
11281.645464,-11103.089130,9326.594869,-69714.690318
11281.648735,7402.059420,8438.347739,-79827.150892
11281.652007,2220.617826,3552.988522,-82278.656485
11281.655278,-6661.853478,8142.265362,-77988.521696
11281.658549,2220.617826,7698.141797,-82738.313784
11281.661821,2072.576638,-5181.441594,-85036.600278
11281.665092,-12287.418637,12287.418637,-68029.280222
11281.668364,-9918.759623,-296.082377,-83504.409282
11281.671635,-12731.542202,9030.512492,-87181.667672
11281.674907,-22206.178260,-3404.947333,-81665.780087
11281.678178,-5625.565159,11103.089130,-59908.667944
11281.681450,-15988.448347,2220.617826,-68948.594820
11281.684721,-16728.654289,11843.295072,-71400.100414
11281.687993,-20429.683999,4589.276840,-79827.150892
11281.691264,-19985.560434,11251.130318,-76149.892501
11281.694535,-6069.688724,11251.130318,-76303.111601
11281.697807,-3108.864956,6513.812290,-84117.285680
11281.701078,-22354.219448,6217.729913,-89633.173266
11281.704350,-11695.253884,7105.977043,-92084.678860
11281.707621,-6513.812290,4293.194464,-72012.976812
11281.710893,11843.295072,15396.283594,-78754.617194
11281.714164,-9474.636058,2812.782580,-82431.875585
11281.717436,2220.617826,11103.089130,-71553.319513
11281.720707,-9178.553681,3849.070898,-64505.240932
11281.723979,-7994.224174,4441.235652,-80133.589091
11281.727250,6217.729913,-2368.659014,-96681.251848
11281.730521,1924.535449,7105.977043,-65271.336430
11281.733793,592.164754,16580.613101,-59908.667944
11281.737042,0.000000,13027.624579,-72166.195912
11281.740292,-7254.018232,1628.453072,-93310.431656
11281.743541,12287.418637,3552.988522,-83657.628382
11281.746791,2072.576638,6661.853478,-59755.448844
11281.750040,-296.082377,20429.683999,-65884.212828
11281.753289,3997.112087,-4589.276840,-88407.420469
11281.756539,-22354.219448,5625.565159,-80899.684589
11281.759788,-18949.272115,3256.906145,-55005.656756
11281.763038,-19393.395680,17912.983796,-37538.679402
11281.766287,-17320.819043,-5921.647536,-85649.476676
11281.769536,-10955.047942,3701.029710,-93157.212557
11281.772786,-7550.100608,-2664.741391,-84117.285680
11281.776035,-9918.759623,22206.178260,-30950.258119
11281.779285,-8586.388927,12583.501014,-53013.808462
11281.782534,-2664.741391,-7402.059420,-101737.482134
11281.785784,-3404.947333,2368.659014,-71553.319513
11281.789033,-6661.853478,10807.006753,-52094.493864
11281.792282,-4293.194464,19245.354492,-35393.612008
11281.795532,-12287.418637,4293.194464,-83351.190182
11281.798781,-5181.441594,-11991.336260,-103729.330429
11281.802031,12879.583391,10362.883188,-67876.061123
11281.805280,-3701.029710,13323.706956,-57610.381450
11281.808529,11251.130318,15840.407159,-75230.577904
11281.811779,-3997.112087,-15988.448347,-121655.965082
11281.815028,-9474.636058,6513.812290,-75537.016103
11281.818278,-592.164754,19541.436869,-43820.662486
11281.821527,4737.318029,2812.782580,-75690.235202
11281.824776,-4589.276840,-5477.523971,-107559.807919
11281.828026,-1924.535449,-10510.924376,-111083.847210
11281.831275,17024.736666,15100.201217,-58682.915147
11281.834525,-3701.029710,13323.706956,-45659.291681
11281.837774,20281.642811,-592.164754,-89173.515967
11281.841047,-2368.659014,2368.659014,-90399.268764
11281.844321,-6661.853478,8734.430116,-54699.218557
11281.847594,444.123565,22206.178260,-43361.005187
11281.850867,-15100.201217,1332.370696,-86415.572174
11281.854141,-30940.608376,-1776.494261,-101890.701234
11281.857414,-14508.036463,-6661.853478,-72472.634111
11281.860687,-3701.029710,23834.631332,-22063.550342
11281.863961,-7846.182985,19541.436869,-46425.387179
11281.867234,-21169.889941,-4737.318029,-106334.055122
11281.870507,-8290.306550,-6217.729913,-102043.920334
11281.873781,-5773.606348,22354.219448,-38917.651298
11281.877054,-296.082377,19245.354492,-46885.044478
11281.880327,-13767.830521,-9326.594869,-106793.712421
11281.883601,-14508.036463,-7698.141797,-107559.807919
11281.886874,1332.370696,12435.459826,-57610.381450
11281.890147,-17616.901420,21169.889941,-29264.848024
11281.893421,13915.871710,14063.912898,-87028.448573
11281.896694,1332.370696,-17468.860231,-136211.779544
11281.899967,-296.082377,15692.365970,-75383.797003
11281.903241,3997.112087,8290.306550,-58989.353346
11281.906514,3108.864956,20281.642811,-58070.038748
11281.909787,-5329.482782,-4885.359217,-108325.903417
11281.913060,1776.494261,-5921.647536,-97600.566445
11281.916334,-740.205942,16580.613101,-53933.123059
11281.919627,-9918.759623,15544.324782,-65271.336430
11281.922921,4885.359217,5033.400406,-79367.493593
11281.926214,1776.494261,-6661.853478,-99745.633840
11281.929508,2368.659014,11843.295072,-74617.701505
11281.932801,10214.842000,17024.736666,-73238.729609
11281.936095,3404.947333,-5181.441594,-97294.128246
11281.939388,-15544.324782,13471.748144,-82431.875585
11281.942682,-8142.265362,5033.400406,-84117.285680
11281.945975,-7698.141797,17320.819043,-68182.499322
11281.949269,-5329.482782,592.164754,-83044.751983
11281.952562,-8438.347739,4589.276840,-79214.274493
11281.955855,-20725.766376,5773.606348,-73085.510509
11281.959149,-29164.114115,11695.253884,-69867.909418
11281.962442,-1776.494261,5625.565159,-80133.589091
11281.965736,-19541.436869,6513.812290,-82738.313784
11281.969029,-20133.601622,9918.759623,-82125.437386
11281.972323,1184.329507,2368.659014,-83810.847481
11281.975616,-18949.272115,4589.276840,-73545.167808
11281.978910,-4441.235652,1184.329507,-82891.532884
11281.982203,444.123565,888.247130,-73391.948708
11281.985497,-1628.453072,13619.789333,-50409.083768
11281.988790,-3256.906145,8142.265362,-55618.533155
11281.992084,9474.636058,5033.400406,-74617.701505
11281.995377,2664.741391,-888.247130,-81512.560987
11281.998671,5773.606348,16136.489536,-75077.358804
11282.001964,12435.459826,3997.112087,-81206.122788
11282.005258,20577.725188,11399.171507,-78754.617194
11282.008551,10510.924376,3552.988522,-74158.044206
11282.011845,-4589.276840,3849.070898,-71706.538613
11282.015138,2812.782580,12879.583391,-72472.634111
11282.018431,2960.823768,13471.748144,-66190.651027
11282.021725,7698.141797,3404.947333,-88254.201370
11282.025034,-8438.347739,-2812.782580,-106334.055122
11282.028344,-1924.535449,7994.224174,-86109.133975
11282.031653,-13175.665768,-444.123565,-69561.471218
11282.034962,-29608.237680,11695.253884,-65884.212828
11282.038272,-16284.530724,-592.164754,-71093.662214
11282.041581,-5033.400406,6957.935855,-59755.448844
11282.044890,-14359.995275,3108.864956,-68795.375720
11282.048200,4737.318029,5477.523971,-73545.167808
11282.051509,-3849.070898,3849.070898,-71246.881314
11282.054819,-3997.112087,8734.430116,-77375.645298
11282.058128,-2960.823768,9918.759623,-75537.016103
11282.061437,-3404.947333,1184.329507,-68335.718422
11282.064747,-15544.324782,11547.212695,-42288.471490
11282.068056,-5329.482782,11103.089130,-56997.505051
11282.071365,-8142.265362,-3256.906145,-87947.763170
11282.074675,13767.830521,18209.066173,-67416.403824
11282.077984,19689.478057,-6661.853478,-96374.813648
11282.081293,10362.883188,9770.718434,-97447.347346
11282.084603,3256.906145,-2072.576638,-95761.937250
11282.087912,-5329.482782,7846.182985,-66803.527426
11282.091222,-13175.665768,9918.759623,-74617.701505
11282.094531,5625.565159,5477.523971,-73391.948708
11282.097840,15248.242405,-4441.235652,-84576.942979
11282.101150,3256.906145,2072.576638,-79061.055394
11282.104459,6365.771101,13915.871710,-75843.454302
11282.107768,10658.965565,3997.112087,-93003.993457
11282.111078,148.041188,2664.741391,-94229.746254
11282.114387,-4293.194464,-2368.659014,-96987.690047
11282.117696,10362.883188,4737.318029,-73851.606007
11282.121006,-18209.066173,15692.365970,-56691.066852
11282.124315,-7402.059420,7698.141797,-74004.825107
11282.127624,-6069.688724,-4589.276840,-102503.577632
11282.130946,-5921.647536,9918.759623,-84883.381178
11282.134268,-740.205942,9918.759623,-76456.330700
11282.137590,-5477.523971,7698.141797,-69255.033019
11282.140912,-6217.729913,5773.606348,-75383.797003
11282.144234,-12435.459826,-1332.370696,-84117.285680
11282.147556,-1332.370696,9622.677246,-80286.808190
11282.150878,-13915.871710,7254.018232,-70327.566716
11282.154200,-4293.194464,6069.688724,-67876.061123
11282.157521,-5033.400406,9622.677246,-79061.055394
11282.160843,-19541.436869,1924.535449,-92084.678860
11282.164165,24278.754898,11251.130318,-91012.145162
11282.167487,-3849.070898,-1924.535449,-85189.819378
11282.170809,888.247130,12287.418637,-78141.740796
11282.174131,3256.906145,-1628.453072,-83504.409282
11282.177453,-6661.853478,8438.347739,-67569.622924
11282.180775,-740.205942,8882.471304,-67416.403824
11282.184096,8438.347739,-148.041188,-83351.190182
11282.187418,9770.718434,11251.130318,-77835.302597
11282.190740,740.205942,16136.489536,-83351.190182
11282.194062,5625.565159,3256.906145,-102350.358533
11282.197384,11251.130318,-1332.370696,-98826.319242
11282.200706,10510.924376,12435.459826,-59449.010645
11282.204028,-148.041188,14211.954086,-45965.729880
11282.207350,1332.370696,7105.977043,-62513.392637
11282.210672,-19837.519246,1924.535449,-63585.926334
11282.213993,-1924.535449,1776.494261,-73085.510509
11282.217315,-13915.871710,9918.759623,-72625.853210
11282.220637,11251.130318,9918.759623,-78448.178995
11282.223959,5181.441594,1776.494261,-91012.145162
11282.227281,-16580.613101,7402.059420,-84117.285680
11282.230603,0.000000,5477.523971,-75077.358804
11282.233925,10214.842000,2516.700203,-73698.386908
11282.237256,-10658.965565,5329.482782,-62513.392637
11282.240588,-9474.636058,2516.700203,-67263.184724
11282.243919,-17912.983796,7550.100608,-81972.218286
11282.247251,-15692.365970,8882.471304,-95149.060852
11282.250582,-5773.606348,-6957.935855,-102350.358533
11282.253914,13767.830521,11991.336260,-111390.285409
11282.257245,6809.894666,-444.123565,-104188.987728
11282.260577,9770.718434,11399.171507,-74617.701505
11282.263908,-4145.153275,2960.823768,-72472.634111
11282.267240,-8586.388927,13027.624579,-68948.594820
11282.270571,-1036.288319,2368.659014,-77528.864398
11282.273903,8882.471304,-2664.741391,-81206.122788
11282.277234,10510.924376,11547.212695,-68029.280222
11282.280566,9326.594869,-148.041188,-86875.229473
11282.283897,4145.153275,6957.935855,-86109.133975
11282.287229,0.000000,7105.977043,-83810.847481
11282.290560,18209.066173,8142.265362,-74464.482406
11282.293892,888.247130,2664.741391,-70634.004916
11282.297223,-444.123565,6809.894666,-62360.173537
11282.300555,-14508.036463,3256.906145,-66343.870127
11282.303886,-12879.583391,9178.553681,-64045.583633
11282.307218,-11695.253884,7254.018232,-63892.364533
11282.310549,740.205942,2220.617826,-73698.386908
11282.313881,-1332.370696,6513.812290,-84117.285680
11282.317212,-13767.830521,8438.347739,-74617.701505
11282.320544,6661.853478,148.041188,-76303.111601
11282.323875,-10807.006753,7994.224174,-69101.813920
11282.327207,-10362.883188,5773.606348,-65577.774629
11282.330538,2960.823768,296.082377,-81052.903688
11282.333870,-21021.848753,4145.153275,-74311.263306
11282.337201,7105.977043,11695.253884,-64045.583633
11282.340533,-14952.160028,-7105.977043,-76915.987999
11282.343872,9326.594869,13619.789333,-60521.544342
11282.347210,21169.889941,1184.329507,-87641.324971
11282.350549,3701.029710,6957.935855,-89326.735067
11282.353888,2812.782580,0.000000,-90552.487864
11282.357226,10214.842000,14359.995275,-64658.460031
11282.360565,-888.247130,2220.617826,-72932.291410
11282.363904,9326.594869,5921.647536,-80133.589091
11282.367242,8142.265362,1628.453072,-83504.409282
11282.370581,6069.688724,4145.153275,-67109.965625
11282.373919,-1628.453072,13619.789333,-58529.696047
11282.377258,1480.411884,3404.947333,-88254.201370
11282.380597,5477.523971,3997.112087,-106946.931521
11282.383935,-4145.153275,-6217.729913,-112462.819106
11282.387274,-8290.306550,14211.954086,-87641.324971
11282.390613,-14656.077652,5181.441594,-76762.768900
11282.393951,-30940.608376,13175.665768,-61440.858940
11282.397290,-20429.683999,-9770.718434,-72012.976812
11282.400629,-25759.166782,9030.512492,-77375.645298
11282.403967,-21465.972318,11251.130318,-63892.364533
11282.407306,-10362.883188,4589.276840,-62666.611736
11282.410645,-31976.896694,5033.400406,-71706.538613
11282.413983,-5329.482782,14952.160028,-77682.083497
11282.417322,-8734.430116,592.164754,-80593.246390
11282.420661,-13175.665768,8438.347739,-72012.976812
11282.423999,2072.576638,13619.789333,-75537.016103
11282.427338,-3108.864956,2812.782580,-63892.364533
11282.430677,-2368.659014,9030.512492,-52707.370262
11282.434015,-3849.070898,1036.288319,-57763.600549
11282.437354,9326.594869,4441.235652,-64045.583633
11282.440693,-1628.453072,2368.659014,-63432.707234
11282.444031,-9474.636058,4885.359217,-62819.830836
11282.447370,8882.471304,7254.018232,-78907.836294
11282.450672,1480.411884,3849.070898,-77682.083497
11282.453973,6661.853478,3849.070898,-79827.150892
11282.457275,-740.205942,4589.276840,-91931.459760
11282.460577,1628.453072,14656.077652,-60981.201641
11282.463878,6217.729913,10510.924376,-51021.960167
11282.467180,4885.359217,2812.782580,-74464.482406
11282.470482,-1036.288319,8734.430116,-90858.926063
11282.473783,2812.782580,-1924.535449,-88867.077768
11282.477085,-22650.301825,-1480.411884,-80746.465489
11282.480387,-13915.871710,11695.253884,-63892.364533
11282.483688,-2516.700203,8142.265362,-69255.033019
11282.486990,-2516.700203,4145.153275,-79214.274493
11282.490292,-2220.617826,6809.894666,-94229.746254
11282.493593,-9770.718434,4885.359217,-86415.572174
11282.496895,-4737.318029,5921.647536,-72779.072310
11282.500197,-3997.112087,13175.665768,-68642.156621
11282.503498,-5181.441594,2220.617826,-70174.347617
11282.506800,-7846.182985,2220.617826,-79520.712692
11282.510102,-21317.931130,3552.988522,-79214.274493
11282.513403,3108.864956,4885.359217,-72166.195912
11282.516705,-7254.018232,2516.700203,-66497.089226
11282.520007,-2072.576638,14211.954086,-62206.954438
11282.523308,10510.924376,-4441.235652,-86722.010374
11282.526610,2960.823768,12139.377449,-79520.712692
11282.529912,11547.212695,0.000000,-77069.207099
11282.533213,8142.265362,11695.253884,-65271.336430
11282.536515,8734.430116,3256.906145,-73698.386908
11282.539817,13175.665768,6069.688724,-74158.044206
11282.543118,-444.123565,2072.576638,-67263.184724
11282.546420,3552.988522,9770.718434,-55312.094956
11282.549722,10807.006753,4737.318029,-60368.325242
11282.553023,4441.235652,296.082377,-81359.341888
11282.556336,2664.741391,10066.800811,-70480.785816
11282.559648,19541.436869,3997.112087,-87641.324971
11282.562961,-1036.288319,7254.018232,-84423.723880
11282.566274,-10214.842000,11103.089130,-84576.942979
11282.569586,-2664.741391,8882.471304,-93616.869856
11282.572899,10066.800811,592.164754,-98060.223744
11282.576211,-11991.336260,5477.523971,-88867.077768
11282.579524,-14656.077652,7698.141797,-81052.903688
11282.582836,-11399.171507,148.041188,-84883.381178
11282.586149,-6069.688724,-296.082377,-84423.723880
11282.589462,-17468.860231,5773.606348,-76762.768900
11282.592774,-14359.995275,-4293.194464,-84730.162079
11282.596087,-23390.507767,8882.471304,-77222.426198
11282.599399,-6809.894666,6957.935855,-73545.167808
11282.602712,-12583.501014,-740.205942,-80440.027290
11282.606024,7698.141797,22650.301825,-72012.976812
11282.609337,20873.807564,0.000000,-86262.353075
11282.612649,-2368.659014,11547.212695,-81665.780087
11282.615962,13767.830521,2664.741391,-83351.190182
11282.619275,1776.494261,12879.583391,-58070.038748
11282.622587,-444.123565,7105.977043,-62666.611736
11282.625900,3849.070898,1332.370696,-71400.100414
11282.629212,-5921.647536,9622.677246,-72779.072310
11282.632525,-148.041188,10510.924376,-75537.016103
11282.635837,2664.741391,7550.100608,-96528.032748
11282.639150,15248.242405,-5773.606348,-100052.072039
11282.642462,15840.407159,9918.759623,-67109.965625
11282.645775,-4145.153275,8290.306550,-53473.465760
11282.649088,-12139.377449,13471.748144,-53933.123059
11282.652400,-9474.636058,9178.553681,-64045.583633
11282.655713,-4145.153275,5477.523971,-90092.830565
11282.659025,-3108.864956,-10807.006753,-111543.504509
11282.662360,-18357.107362,10214.842000,-82585.094684
11282.665681,-12731.542202,8734.430116,-82585.094684
11282.669002,-2812.782580,7105.977043,-77528.864398
11282.672323,-14508.036463,3701.029710,-81512.560987
11282.675643,-296.082377,7550.100608,-76149.892501
11282.678964,-20873.807564,-1036.288319,-77835.302597
11282.682285,-21169.889941,8290.306550,-73391.948708
11282.685606,1184.329507,7550.100608,-74158.044206
11282.688927,-13471.748144,-3997.112087,-77528.864398
11282.692248,2960.823768,17616.901420,-66497.089226
11282.695569,23094.425390,1776.494261,-73545.167808
11282.698890,1628.453072,10362.883188,-74464.482406
11282.702211,6957.935855,-1184.329507,-93463.650756
11282.705532,11103.089130,9178.553681,-84576.942979
11282.708852,8290.306550,2960.823768,-67263.184724
11282.712173,2664.741391,6069.688724,-52860.589362
11282.715494,296.082377,8438.347739,-63585.926334
11282.718815,3997.112087,148.041188,-85802.695776
11282.722136,7698.141797,-1776.494261,-83657.628382
11282.725457,9622.677246,296.082377,-77528.864398
11282.728778,10214.842000,14359.995275,-60827.982541
11282.732099,9326.594869,7254.018232,-74464.482406
11282.735420,-12287.418637,-1924.535449,-104188.987728
11282.738741,-8142.265362,2220.617826,-89633.173266
11282.768697,-29460.196492,-6217.729913,-120736.650485
11282.772025,-4885.359217,5181.441594,-75383.797003
11282.775354,-3701.029710,13027.624579,-44280.319784
11282.778682,592.164754,10214.842000,-62206.954438
11282.782010,13915.871710,-7698.141797,-77528.864398
11282.785339,-444.123565,7105.977043,-64811.679131
11282.788667,5181.441594,8734.430116,-41062.718693
11282.791996,9030.512492,12879.583391,-53933.123059
11282.795324,5625.565159,-6217.729913,-83504.409282
11282.798653,5033.400406,4885.359217,-74770.920605
11282.801981,1924.535449,7105.977043,-67569.622924
11282.805310,-5773.606348,14359.995275,-48417.235474
11282.808638,5181.441594,9770.718434,-63279.488135
11282.811967,3997.112087,-2960.823768,-89786.392366
11282.815295,-740.205942,2812.782580,-90399.268764
11282.818623,888.247130,5329.482782,-70634.004916
11282.821952,-11695.253884,2368.659014,-71706.538613
11282.825280,-25907.207970,7105.977043,-63739.145434
11282.828609,-18505.148550,1184.329507,-67569.622924
11282.831937,148.041188,11991.336260,-48264.016374
11282.835266,-3404.947333,7846.182985,-72166.195912
11282.838594,-9770.718434,4589.276840,-97447.347346
11282.841923,-1036.288319,-888.247130,-96374.813648
11282.845251,-15100.201217,7550.100608,-78754.617194
11282.848584,-10066.800811,18061.024985,-48264.016374
11282.851916,-5181.441594,4589.276840,-66190.651027
11282.855249,-9178.553681,5773.606348,-88713.858668
11282.858581,-2664.741391,-7846.182985,-88713.858668
11282.861914,13175.665768,17172.777854,-68182.499322
11282.865247,-296.082377,4145.153275,-62819.830836
11282.868579,12287.418637,6809.894666,-75996.673402
11282.871912,-4441.235652,-7105.977043,-96834.470947
11282.875244,-2664.741391,3404.947333,-71093.662214
11282.878577,9622.677246,13471.748144,-63432.707234
11282.881910,7254.018232,5921.647536,-68642.156621
11282.885242,8586.388927,2812.782580,-91778.240660
11282.888575,4145.153275,-4441.235652,-99898.852939
11282.891907,-11843.295072,11103.089130,-64811.679131
11282.895240,7698.141797,10214.842000,-55312.094956
11282.898573,16728.654289,18209.066173,-62973.049936
11282.901905,-2812.782580,-740.205942,-85189.819378
11282.905238,-9918.759623,8290.306550,-98673.100142
11282.908570,-15248.242405,4441.235652,-88713.858668
11282.911903,-10955.047942,14952.160028,-70634.004916
11282.915235,-14656.077652,-2220.617826,-78907.836294
11282.918568,-17764.942608,6661.853478,-84730.162079
11282.921901,-22058.137072,3404.947333,-83810.847481
11282.925233,-10955.047942,7105.977043,-69867.909418
11282.928566,-19393.395680,2516.700203,-68948.594820
11282.931898,-17468.860231,12731.542202,-74617.701505
11282.935231,-11843.295072,3997.112087,-80746.465489
11282.938564,-17320.819043,5329.482782,-89020.296868
11282.941896,740.205942,1628.453072,-82125.437386
11282.945229,1480.411884,2516.700203,-61134.420740
11282.948561,-148.041188,17024.736666,-36619.364804
11282.951894,6957.935855,2516.700203,-51328.398366
11282.955229,6069.688724,11991.336260,-45659.291681
11282.958564,5181.441594,-3701.029710,-65118.117330
11282.961900,3997.112087,7846.182985,-73085.510509
11282.965235,24722.878463,6661.853478,-74770.920605
11282.968570,-3701.029710,3256.906145,-74004.825107
11282.971905,12435.459826,11103.089130,-83964.066581
11282.975241,-296.082377,6217.729913,-89173.515967
11282.978576,7994.224174,2664.741391,-72472.634111
11282.981911,6957.935855,12731.542202,-59449.010645
11282.985246,-6217.729913,1036.288319,-69867.909418
11282.988582,-3997.112087,3849.070898,-75996.673402
11282.991917,-18949.272115,-2072.576638,-75996.673402
11282.995252,-16284.530724,4293.194464,-69714.690318
11282.998587,-13471.748144,-1776.494261,-76303.111601
11283.001923,-2516.700203,8734.430116,-62666.611736
11283.005258,-1776.494261,6365.771101,-68488.937521
11283.008593,-8438.347739,14804.118840,-67416.403824
11283.011928,5033.400406,4293.194464,-69867.909418
11283.015263,-2220.617826,9770.718434,-71400.100414
11283.018599,-19393.395680,5477.523971,-76609.549800
11283.021934,-18653.189738,4441.235652,-77222.426198
11283.025269,-3997.112087,14656.077652,-68335.718422
11283.028604,-15396.283594,-2220.617826,-77988.521696
11283.031940,2516.700203,17320.819043,-69255.033019
11283.035275,17468.860231,-6365.771101,-90552.487864
11283.038610,1776.494261,11103.089130,-70787.224015
11283.041945,9770.718434,3256.906145,-79061.055394
11283.045281,4737.318029,5921.647536,-81359.341888
11283.048616,-3256.906145,8290.306550,-78907.836294
11283.051951,11103.089130,-2072.576638,-87488.105872
11283.055286,-2072.576638,6957.935855,-72932.291410
11283.058621,1332.370696,11251.130318,-64811.679131
11283.061958,9178.553681,4885.359217,-76762.768900
11283.065295,-2516.700203,-1184.329507,-100052.072039
11283.068631,0.000000,-296.082377,-97600.566445
11283.071968,1332.370696,8734.430116,-81052.903688
11283.075304,-18949.272115,1776.494261,-68642.156621
11283.078641,-22206.178260,10066.800811,-53779.903960
11283.081978,-6365.771101,3997.112087,-66650.308326
11283.085314,740.205942,8586.388927,-53626.684860
11283.088651,-15396.283594,6809.894666,-72932.291410
11283.091987,-9770.718434,6957.935855,-83351.190182
11283.095324,6365.771101,2812.782580,-80746.465489
11283.098660,-12287.418637,7994.224174,-72012.976812
11283.101997,2812.782580,8734.430116,-70787.224015
11283.105334,-10214.842000,9474.636058,-70174.347617
11283.108670,-9030.512492,10955.047942,-71553.319513
11283.112007,-6069.688724,-7550.100608,-78601.398095
11283.115343,8438.347739,19245.354492,-59449.010645
11283.118680,18801.230927,-592.164754,-84117.285680
11283.122017,4145.153275,296.082377,-79673.931792
11283.125353,2664.741391,-8290.306550,-110930.628110
11283.128690,7105.977043,8438.347739,-87794.544071
11283.132026,9622.677246,11251.130318,-61440.858940
11283.135363,2812.782580,2368.659014,-66497.089226
11283.138700,6513.812290,1332.370696,-89633.173266
11283.142036,3256.906145,-2368.659014,-98826.319242
11283.145373,-4293.194464,3701.029710,-77069.207099
11283.148709,7254.018232,9770.718434,-50868.741067
11283.152046,4589.276840,6365.771101,-52094.493864
11283.155382,-9770.718434,6809.894666,-74311.263306
11283.158719,-13767.830521,-8734.430116,-100358.510238
11283.162056,-12139.377449,148.041188,-86262.353075
11283.165392,-12879.583391,7846.182985,-59295.791545
11283.168729,1036.288319,18061.024985,-44127.100685
11283.172066,-3997.112087,1628.453072,-80746.465489
11283.175403,9622.677246,5329.482782,-84730.162079
11283.178740,-15396.283594,592.164754,-81359.341888
11283.182076,-3701.029710,6661.853478,-64352.021832
11283.185413,-12139.377449,17320.819043,-55005.656756
11283.188750,-14952.160028,-4737.318029,-73391.948708
11283.192087,2072.576638,5181.441594,-74311.263306
11283.195424,-14952.160028,-444.123565,-72012.976812
11283.198761,15396.283594,16876.695478,-50562.302868
11283.202098,8734.430116,-148.041188,-69867.909418
11283.205435,8586.388927,10955.047942,-79980.369991
11283.208771,17172.777854,-3701.029710,-106180.836023
11283.212108,3849.070898,6661.853478,-93463.650756
