#time,accel_x,accel_y,accel_z
2399.295149,1924.535449,3552.988522,-76149.892501
2399.297598,-3404.947333,3108.864956,-74770.920605
2399.300047,-2812.782580,4441.235652,-72932.291410
2399.302497,888.247130,2664.741391,-74158.044206
2399.304946,-5921.647536,3404.947333,-74770.920605
2399.307395,1924.535449,3997.112087,-75230.577904
2399.309844,-3701.029710,5773.606348,-72012.976812
2399.312293,-3701.029710,3849.070898,-71706.538613
2399.314742,2812.782580,3404.947333,-73698.386908
2399.317191,-5625.565159,5625.565159,-74617.701505
2399.319641,-148.041188,3552.988522,-74924.139704
2399.322090,-888.247130,3108.864956,-75537.016103
2399.324539,-4145.153275,6661.853478,-70940.443115
2399.326988,1480.411884,4441.235652,-69408.252119
2399.329437,-6069.688724,6069.688724,-72012.976812
2399.331886,-13915.871710,6069.688724,-73391.948708
2399.334336,4885.359217,1184.329507,-70940.443115
2399.336785,-11103.089130,444.123565,-71400.100414
2399.339234,38638.750172,-7402.059420,-72932.291410
2399.341683,-20133.601622,-740.205942,-51328.398366
2399.344132,13915.871710,1628.453072,-59449.010645
2399.346581,-5773.606348,10066.800811,-60215.106143
2399.349030,-7105.977043,2220.617826,-70327.566716
2399.351480,13323.706956,11399.171507,-74158.044206
2399.353929,-10362.883188,11695.253884,-71400.100414
2399.356378,-2220.617826,8586.388927,-73698.386908
2399.358827,-296.082377,-10214.842000,-82278.656485
2399.361276,-7105.977043,3849.070898,-70634.004916
2399.363725,-1924.535449,2368.659014,-75230.577904
2399.366175,-1184.329507,13027.624579,-72932.291410
2399.368624,1924.535449,18061.024985,-70174.347617
2399.371073,-4589.276840,7698.141797,-72166.195912
2399.373522,-7846.182985,12139.377449,-65424.555529
2399.376018,2220.617826,5773.606348,-68795.375720
2399.378514,1036.288319,2368.659014,-72932.291410
2399.381010,444.123565,3404.947333,-73698.386908
2399.383506,-2812.782580,5329.482782,-75077.358804
2399.386002,-4145.153275,12435.459826,-72472.634111
2399.388498,-7402.059420,16284.530724,-78294.959896
2399.390994,5921.647536,2516.700203,-81052.903688
2399.393490,-4293.194464,8882.471304,-72625.853210
2399.395986,-3701.029710,10658.965565,-66650.308326
2399.398482,-1036.288319,-148.041188,-75230.577904
2399.400978,-4145.153275,7698.141797,-73085.510509
2399.403474,8586.388927,10362.883188,-73698.386908
2399.405970,-3108.864956,8586.388927,-74464.482406
2399.408466,1184.329507,17616.901420,-69714.690318
2399.410962,-13027.624579,10658.965565,-70174.347617
2399.413458,-6661.853478,4441.235652,-73851.606007
2399.415954,4737.318029,4885.359217,-74004.825107
2399.418450,-3108.864956,4441.235652,-73085.510509
2399.420946,-3701.029710,9622.677246,-74770.920605
2399.423442,-888.247130,7846.182985,-76303.111601
2399.425938,-3256.906145,9030.512492,-76609.549800
2399.428434,1776.494261,8438.347739,-74617.701505
2399.430930,-4885.359217,7402.059420,-72012.976812
2399.433426,-2368.659014,7994.224174,-75383.797003
2399.435922,-3404.947333,-2812.782580,-80286.808190
2399.438418,-3404.947333,8290.306550,-72625.853210
2399.440914,-2516.700203,-13767.830521,-83657.628382
2399.443410,16876.695478,8734.430116,-70021.128517
2399.445906,-31680.814318,1628.453072,-73545.167808
2399.448402,21465.972318,-6365.771101,-79980.369991
2399.450897,592.164754,10362.883188,-65271.336430
2399.453393,-11547.212695,-12287.418637,-75996.673402
2399.455889,8438.347739,11251.130318,-70021.128517
2399.458385,5625.565159,6661.853478,-72012.976812
2399.460881,-13767.830521,-592.164754,-73391.948708
2399.463377,7994.224174,3997.112087,-70787.224015
2399.465873,-3108.864956,-1184.329507,-72779.072310
2399.468369,3108.864956,3849.070898,-72932.291410
2399.470865,-2960.823768,2072.576638,-78294.959896
2399.473361,-12139.377449,-3256.906145,-81512.560987
2399.475883,-1480.411884,-2516.700203,-78294.959896
2399.478405,-3701.029710,148.041188,-75843.454302
2399.480927,-1184.329507,-1480.411884,-77835.302597
2399.483449,-2516.700203,3701.029710,-78601.398095
2399.485971,-4885.359217,3997.112087,-73698.386908
2399.488492,-5625.565159,740.205942,-71706.538613
2399.491014,-2664.741391,2664.741391,-72472.634111
2399.493536,2664.741391,0.000000,-81052.903688
2399.496058,-4145.153275,2220.617826,-77375.645298
2399.498580,-9326.594869,3849.070898,-75077.358804
2399.501102,-888.247130,-6217.729913,-80440.027290
2399.503624,-2072.576638,-6069.688724,-77069.207099
2399.506146,-4885.359217,-4885.359217,-75537.016103
2399.508667,1036.288319,-2812.782580,-75690.235202
2399.511189,-5329.482782,592.164754,-74617.701505
2399.513711,6069.688724,148.041188,-73851.606007
2399.516233,-10658.965565,3849.070898,-72166.195912
2399.518755,2220.617826,2812.782580,-75996.673402
2399.521277,-296.082377,4293.194464,-74770.920605
2399.523799,-6069.688724,4589.276840,-71706.538613
2399.526320,2960.823768,-6957.935855,-77222.426198
2399.528842,148.041188,-12435.459826,-79520.712692
2399.531364,-8734.430116,8142.265362,-69714.690318
2399.533886,-7254.018232,5773.606348,-73085.510509
2399.536408,-11251.130318,-4145.153275,-79673.931792
2399.538930,23390.507767,21614.013506,-67569.622924
2399.541452,-22206.178260,-8586.388927,-86722.010374
2399.543973,14211.954086,8734.430116,-81512.560987
2399.546495,-8290.306550,12287.418637,-79980.369991
2399.549017,-21614.013506,-7846.182985,-83351.190182
2399.551539,10955.047942,12435.459826,-71553.319513
2399.554061,2072.576638,-6513.812290,-81512.560987
2399.556583,-4293.194464,10362.883188,-72472.634111
2399.559105,-1480.411884,9622.677246,-71093.662214
2399.561627,-11843.295072,4737.318029,-79061.055394
2399.564148,2220.617826,7105.977043,-76149.892501
2399.566670,-1184.329507,9622.677246,-71553.319513
2399.569192,-10658.965565,3701.029710,-75996.673402
2399.571714,-1332.370696,6661.853478,-76303.111601
2399.574236,-8290.306550,592.164754,-77682.083497
2399.576775,2368.659014,6365.771101,-73391.948708
2399.579315,1332.370696,7846.182985,-76609.549800
2399.581854,-4589.276840,10955.047942,-80899.684589
2399.584394,-8438.347739,-592.164754,-82585.094684
2399.586934,-3256.906145,-3256.906145,-80593.246390
2399.589473,-2220.617826,2072.576638,-79214.274493
2399.592013,2516.700203,-1776.494261,-82278.656485
2399.594552,-4145.153275,5921.647536,-77069.207099
2399.597092,3404.947333,10658.965565,-79980.369991
2399.599631,-7550.100608,9770.718434,-76762.768900
2399.602171,-7550.100608,7402.059420,-73238.729609
2399.604710,-148.041188,4293.194464,-76303.111601
2399.607250,-6661.853478,3256.906145,-77682.083497
2399.609789,7254.018232,5329.482782,-76609.549800
2399.612329,-4293.194464,7846.182985,-74158.044206
2399.614869,-8734.430116,9474.636058,-72472.634111
2399.617408,3256.906145,7402.059420,-74924.139704
2399.619948,148.041188,9770.718434,-76762.768900
2399.622487,-2664.741391,4589.276840,-76609.549800
2399.625027,148.041188,3997.112087,-75690.235202
2399.627566,-17320.819043,-148.041188,-78907.836294
2399.630106,13471.748144,3552.988522,-75843.454302
2399.632645,-13767.830521,-9918.759623,-83810.847481
2399.635185,10214.842000,9326.594869,-71246.881314
2399.637724,-18209.066173,-2368.659014,-74770.920605
2399.640264,3404.947333,-2516.700203,-71706.538613
2399.642804,16284.530724,9030.512492,-69408.252119
2399.645343,-9326.594869,-8882.471304,-78141.740796
2399.647883,-4293.194464,12287.418637,-68795.375720
2399.650422,-2960.823768,-1480.411884,-76303.111601
2399.652962,-9474.636058,-740.205942,-77528.864398
2399.655501,5033.400406,6809.894666,-71706.538613
2399.658041,-6217.729913,-8290.306550,-79980.369991
2399.660580,5181.441594,-888.247130,-77222.426198
2399.663120,-3256.906145,3997.112087,-71553.319513
2399.665659,-11103.089130,-148.041188,-72779.072310
2399.668199,296.082377,3552.988522,-72319.415011
2399.670739,-1184.329507,-888.247130,-76456.330700
2399.673278,-6217.729913,3404.947333,-74464.482406
2399.675818,-1036.288319,444.123565,-72932.291410
2399.678369,-1480.411884,-6661.853478,-81512.560987
2399.680921,-10807.006753,6069.688724,-72932.291410
2399.683473,-2664.741391,4589.276840,-77069.207099
2399.686025,-1776.494261,-2960.823768,-83964.066581
2399.688577,-4737.318029,4737.318029,-76762.768900
2399.691128,-1628.453072,-3256.906145,-77835.302597
2399.693680,-6513.812290,-7846.182985,-77835.302597
2399.696232,1332.370696,-5181.441594,-74004.825107
2399.698784,5181.441594,-1184.329507,-69255.033019
2399.701335,1480.411884,3108.864956,-68642.156621
2399.703887,1776.494261,3701.029710,-73391.948708
2399.706439,-10658.965565,-888.247130,-75690.235202
2399.708991,3849.070898,7105.977043,-74004.825107
2399.711543,1480.411884,1776.494261,-77069.207099
2399.714094,-8438.347739,-4293.194464,-76762.768900
2399.716646,6069.688724,6069.688724,-70480.785816
2399.719198,-14508.036463,-4293.194464,-74617.701505
2399.721750,2220.617826,-2220.617826,-77988.521696
2399.724301,-3404.947333,9178.553681,-71400.100414
2399.726853,1480.411884,-6217.729913,-78907.836294
2399.729405,2368.659014,12731.542202,-65730.993728
2399.731957,-1628.453072,13175.665768,-65577.774629
2399.734508,3256.906145,11843.295072,-69714.690318
2399.737060,-2516.700203,14508.036463,-69255.033019
2399.739612,-11695.253884,15988.448347,-64505.240932
2399.742164,4589.276840,-3108.864956,-77528.864398
2399.744716,5181.441594,10807.006753,-69101.813920
2399.747267,-12139.377449,5625.565159,-76609.549800
2399.749819,1184.329507,4145.153275,-75537.016103
2399.752371,2960.823768,14211.954086,-69408.252119
2399.754923,-4145.153275,7994.224174,-73391.948708
2399.757474,2960.823768,9770.718434,-71859.757712
2399.760026,-5773.606348,7846.182985,-71400.100414
2399.762578,-6661.853478,7550.100608,-70634.004916
2399.765130,-1184.329507,2812.782580,-70021.128517
2399.767682,-148.041188,10214.842000,-71706.538613
2399.770233,5181.441594,9178.553681,-77375.645298
2399.772785,-14508.036463,8438.347739,-76762.768900
2399.775337,-5329.482782,3849.070898,-70327.566716
2399.777889,3108.864956,6069.688724,-70174.347617
2399.780448,-2516.700203,9474.636058,-71553.319513
2399.783007,2960.823768,7402.059420,-77988.521696
2399.785566,-7402.059420,8290.306550,-77528.864398
2399.788125,-16876.695478,15248.242405,-71246.881314
2399.790684,3849.070898,2516.700203,-82278.656485
2399.793243,-7105.977043,592.164754,-83810.847481
2399.795802,9326.594869,3256.906145,-83351.190182
2399.798361,-6809.894666,6809.894666,-77069.207099
2399.800920,-9326.594869,6809.894666,-72472.634111
2399.803479,2664.741391,4145.153275,-70787.224015
2399.806038,3404.947333,9326.594869,-73238.729609
2399.808597,-6069.688724,7105.977043,-75843.454302
2399.811156,-3997.112087,9770.718434,-76915.987999
2399.813715,-14359.995275,1332.370696,-77835.302597
2399.816274,10807.006753,296.082377,-76609.549800
2399.818833,-8142.265362,-888.247130,-77375.645298
2399.821392,-296.082377,5773.606348,-68795.375720
2399.823951,-5033.400406,-444.123565,-75690.235202
2399.826510,-3552.988522,-148.041188,-71093.662214
2399.829069,-4441.235652,-740.205942,-69255.033019
2399.831628,8142.265362,-6365.771101,-80440.027290
2399.834187,-11991.336260,15100.201217,-70787.224015
2399.836747,-5773.606348,-5181.441594,-83197.971083
2399.839306,-2664.741391,2220.617826,-76303.111601
2399.841865,296.082377,296.082377,-75690.235202
2399.844424,-3256.906145,-7402.059420,-79673.931792
2399.846983,3997.112087,-1924.535449,-79214.274493
2399.849542,-5181.441594,1628.453072,-75537.016103
2399.852101,-10362.883188,-740.205942,-77375.645298
2399.854660,1036.288319,2960.823768,-72779.072310
2399.857219,-4589.276840,1776.494261,-76303.111601
2399.859778,-4441.235652,4885.359217,-76915.987999
2399.862337,-2960.823768,6957.935855,-71706.538613
2399.864896,-8882.471304,1480.411884,-74311.263306
2399.867455,-5033.400406,4885.359217,-77528.864398
2399.870014,-5329.482782,444.123565,-78601.398095
2399.872573,-12583.501014,-592.164754,-80133.589091
2399.875132,-4885.359217,1924.535449,-74924.139704
2399.877691,-12583.501014,-7550.100608,-78448.178995
2399.880250,3256.906145,-7698.141797,-77682.083497
2399.882812,3997.112087,-6217.729913,-75996.673402
2399.885375,-3108.864956,-3552.988522,-78907.836294
2399.887937,-6365.771101,2072.576638,-76762.768900
2399.890499,-11695.253884,-1924.535449,-76762.768900
2399.893061,1036.288319,6661.853478,-72166.195912
2399.895623,1628.453072,1924.535449,-74924.139704
2399.898185,-9030.512492,-740.205942,-75537.016103
2399.900748,7846.182985,8734.430116,-70480.785816
2399.903310,-8290.306550,-7105.977043,-75996.673402
2399.905872,-4441.235652,-2072.576638,-74770.920605
2399.908434,-5033.400406,7994.224174,-70021.128517
2399.910996,-8882.471304,-6365.771101,-81052.903688
2399.913559,444.123565,4145.153275,-76303.111601
2399.916121,-5921.647536,11399.171507,-64045.583633
2399.918683,444.123565,11103.089130,-72472.634111
2399.921245,4293.194464,11547.212695,-76762.768900
2399.923807,-15988.448347,9474.636058,-69867.909418
2399.926369,4441.235652,2220.617826,-76456.330700
2399.928932,9770.718434,4737.318029,-72472.634111
2399.931494,-19541.436869,2220.617826,-76915.987999
2399.934056,8586.388927,11103.089130,-75690.235202
2399.936618,-6365.771101,9030.512492,-75537.016103
2399.939180,-148.041188,7994.224174,-74464.482406
2399.941743,592.164754,9622.677246,-73085.510509
2399.944305,-9622.677246,4145.153275,-77222.426198
2399.946867,-4293.194464,2960.823768,-76456.330700
2399.949429,9178.553681,592.164754,-77682.083497
2399.951991,-4589.276840,9326.594869,-72779.072310
2399.954553,1628.453072,592.164754,-82278.656485
2399.957116,-11251.130318,-1776.494261,-86875.229473
2399.959678,-296.082377,1924.535449,-80746.465489
2399.962240,-1184.329507,3404.947333,-72779.072310
2399.964802,-2960.823768,10510.924376,-69867.909418
2399.967364,5033.400406,2960.823768,-78754.617194
2399.969927,-10362.883188,12879.583391,-70940.443115
2399.972489,-10066.800811,14211.954086,-70480.785816
2399.975051,8734.430116,2368.659014,-77988.521696
2399.977613,-5921.647536,11103.089130,-72625.853210
2399.980175,592.164754,8290.306550,-77988.521696
2399.982737,-1776.494261,6957.935855,-75843.454302
2399.985302,148.041188,5477.523971,-76149.892501
2399.987867,-5773.606348,4885.359217,-71859.757712
2399.990431,2960.823768,8586.388927,-70480.785816
2399.992996,-4293.194464,14063.912898,-73545.167808
2399.995560,-10362.883188,4589.276840,-76303.111601
2399.998125,6809.894666,7254.018232,-73085.510509
2400.000690,-3701.029710,-4293.194464,-78141.740796
2400.003254,2664.741391,5329.482782,-67569.622924
2400.005819,-16876.695478,-5625.565159,-75996.673402
2400.008383,6365.771101,740.205942,-69408.252119
2400.010948,3108.864956,1628.453072,-70787.224015
2400.013512,-740.205942,-8586.388927,-77682.083497
2400.016077,-7105.977043,17912.983796,-67876.061123
2400.018642,-5773.606348,-1924.535449,-82431.875585
2400.021206,-148.041188,2960.823768,-79367.493593
2400.023771,-3849.070898,5921.647536,-68182.499322
2400.026335,-9770.718434,-10658.965565,-77069.207099
2400.028900,7105.977043,-2220.617826,-76303.111601
2400.031465,-9326.594869,4293.194464,-74770.920605
2400.034029,-4293.194464,0.000000,-79827.150892
2400.036594,592.164754,4589.276840,-72625.853210
2400.039158,-9474.636058,2220.617826,-73391.948708
2400.041723,4293.194464,1332.370696,-72932.291410
2400.044287,-6365.771101,3256.906145,-73391.948708
2400.046852,3701.029710,2368.659014,-76149.892501
2400.049417,-3404.947333,5921.647536,-69255.033019
2400.051981,-6365.771101,3404.947333,-70480.785816
2400.054546,-6513.812290,740.205942,-76303.111601
2400.057110,-5625.565159,296.082377,-72932.291410
2400.059675,740.205942,-3108.864956,-73851.606007
2400.062240,3849.070898,-2960.823768,-72166.195912
2400.064804,-2664.741391,-2072.576638,-72319.415011
2400.067369,-12435.459826,740.205942,-73698.386908
2400.069936,-3404.947333,2960.823768,-74617.701505
2400.072502,2368.659014,4885.359217,-74158.044206
2400.075068,-1332.370696,6661.853478,-71706.538613
2400.077635,-4589.276840,-4589.276840,-78448.178995
2400.080201,3552.988522,1036.288319,-76303.111601
2400.082768,-13767.830521,444.123565,-72472.634111
2400.085334,3404.947333,-5921.647536,-79061.055394
2400.087900,-6661.853478,4145.153275,-74311.263306
2400.090467,1036.288319,14508.036463,-67109.965625
2400.093033,-2368.659014,-6069.688724,-85955.914876
2400.095599,11399.171507,9474.636058,-78601.398095
2400.098166,-10807.006753,16876.695478,-76915.987999
2400.100732,-9622.677246,-5625.565159,-83197.971083
2400.103298,4737.318029,8290.306550,-74924.139704
2400.105865,1924.535449,-6513.812290,-83657.628382
2400.108431,-5329.482782,5033.400406,-73545.167808
2400.110998,-6365.771101,8438.347739,-72932.291410
2400.113564,-9770.718434,9622.677246,-74617.701505
2400.116130,13175.665768,11695.253884,-73851.606007
2400.118697,-5329.482782,12583.501014,-73698.386908
2400.121263,-2516.700203,8142.265362,-75230.577904
2400.123829,-3997.112087,6809.894666,-71859.757712
2400.126396,-7402.059420,2664.741391,-72932.291410
2400.128962,1628.453072,2072.576638,-75996.673402
2400.131528,-4589.276840,4589.276840,-79520.712692
2400.134095,-5033.400406,3552.988522,-80286.808190
2400.136661,-9178.553681,1332.370696,-80899.684589
2400.139228,296.082377,5329.482782,-76762.768900
2400.141794,2368.659014,2812.782580,-76456.330700
2400.144360,-2220.617826,7550.100608,-76149.892501
2400.146927,-7550.100608,12879.583391,-73545.167808
2400.149493,-7105.977043,12731.542202,-73698.386908
2400.152059,296.082377,7698.141797,-77988.521696
2400.154626,2368.659014,2220.617826,-79980.369991
2400.157192,-11695.253884,10362.883188,-74158.044206
2400.159758,-2812.782580,2960.823768,-75843.454302
2400.162325,9474.636058,3997.112087,-76609.549800
2400.164891,-10807.006753,-888.247130,-75843.454302
2400.167458,-296.082377,5773.606348,-74617.701505
2400.169947,-7105.977043,11399.171507,-76303.111601
2400.172437,-592.164754,9770.718434,-72472.634111
2400.174927,1332.370696,15988.448347,-69867.909418
2400.177417,1628.453072,-5625.565159,-80133.589091
2400.179907,-16580.613101,-5773.606348,-82738.313784
2400.182396,-10510.924376,-2072.576638,-79214.274493
2400.184886,1628.453072,-17468.860231,-85189.819378
2400.187376,13471.748144,1480.411884,-76149.892501
2400.189866,-16580.613101,4145.153275,-75843.454302
2400.192356,-3404.947333,1036.288319,-79520.712692
2400.194845,4885.359217,11103.089130,-70787.224015
2400.197335,-12583.501014,888.247130,-74617.701505
2400.199825,148.041188,-11251.130318,-77988.521696
2400.202315,148.041188,-148.041188,-73545.167808
2400.204805,-10955.047942,-4441.235652,-78141.740796
2400.207294,592.164754,-148.041188,-75230.577904
2400.209784,-1628.453072,4293.194464,-72625.853210
2400.212274,-2960.823768,3849.070898,-73698.386908
2400.214764,-3552.988522,-1332.370696,-79214.274493
2400.217254,-7550.100608,4145.153275,-74770.920605
2400.219743,4589.276840,444.123565,-73851.606007
2400.222233,-5625.565159,7105.977043,-68029.280222
2400.224723,-4441.235652,0.000000,-75383.797003
2400.227213,-5625.565159,1628.453072,-77988.521696
2400.229703,-4145.153275,-148.041188,-70940.443115
2400.232192,11251.130318,-7994.224174,-78448.178995
2400.234682,-6217.729913,-6217.729913,-69561.471218
2400.237172,-2516.700203,-2220.617826,-72472.634111
2400.239662,-6069.688724,-4441.235652,-77375.645298
2400.242152,-2516.700203,7254.018232,-70480.785816
2400.244641,2960.823768,3701.029710,-74311.263306
2400.247131,-7846.182985,2368.659014,-73391.948708
2400.249621,6069.688724,11399.171507,-73391.948708
2400.252111,-6661.853478,-13767.830521,-82891.532884
2400.254601,-6513.812290,-5329.482782,-73698.386908
2400.257090,148.041188,8290.306550,-65730.993728
2400.259580,-14359.995275,-13471.748144,-80440.027290
2400.262070,13471.748144,28423.908173,-64964.898230
2400.264560,-8734.430116,9474.636058,-76762.768900
2400.267050,4885.359217,16728.654289,-70021.128517
2400.269562,-4885.359217,16432.571912,-70174.347617
2400.272074,-15100.201217,8290.306550,-66037.431928
2400.274587,8142.265362,444.123565,-78448.178995
2400.277099,6957.935855,4885.359217,-72779.072310
2400.279611,-16284.530724,2072.576638,-74617.701505
2400.282124,888.247130,6217.729913,-78141.740796
2400.284636,-5625.565159,10510.924376,-77222.426198
2400.287148,3108.864956,13027.624579,-77988.521696
2400.289660,1332.370696,8882.471304,-77069.207099
2400.292173,-4293.194464,1776.494261,-75996.673402
2400.294685,-6809.894666,3997.112087,-75843.454302
2400.297197,-1184.329507,1332.370696,-77988.521696
2400.299710,-3256.906145,-4589.276840,-81512.560987
2400.302222,-2812.782580,-2072.576638,-80593.246390
2400.304734,-1776.494261,10214.842000,-71400.100414
2400.307247,-9474.636058,7698.141797,-72779.072310
2400.309759,148.041188,1776.494261,-78294.959896
2400.312271,592.164754,17024.736666,-67876.061123
2400.314784,-8290.306550,13175.665768,-68182.499322
2400.317296,-740.205942,3849.070898,-80899.684589
2400.319808,-3701.029710,18653.189738,-76303.111601
2400.322321,-2220.617826,7402.059420,-80286.808190
2400.324833,-6661.853478,1184.329507,-76149.892501
2400.327345,2220.617826,5921.647536,-71706.538613
2400.329857,740.205942,1332.370696,-76915.987999
2400.332370,-8438.347739,1776.494261,-79214.274493
2400.334882,-3849.070898,12731.542202,-73085.510509
2400.337394,-7994.224174,7254.018232,-74770.920605
2400.339907,8142.265362,12139.377449,-72012.976812
2400.342419,-1628.453072,-2516.700203,-79673.931792
2400.344931,-2072.576638,9474.636058,-65118.117330
2400.347444,-16876.695478,-7105.977043,-73698.386908
2400.349956,9474.636058,-6809.894666,-70787.224015
2400.352468,-6513.812290,1628.453072,-68182.499322
2400.354981,3552.988522,-8290.306550,-82585.094684
2400.357493,-7846.182985,16876.695478,-72319.415011
2400.360005,-14952.160028,-2812.782580,-81665.780087
2400.362517,5477.523971,1480.411884,-78601.398095
2400.365030,-5033.400406,-888.247130,-79214.274493
2400.367542,-3552.988522,-11695.253884,-85343.038477
2400.370070,3997.112087,-8882.471304,-79367.493593
2400.372597,-8586.388927,-888.247130,-71093.662214
2400.375125,-2960.823768,-1924.535449,-77069.207099
2400.377653,2516.700203,6365.771101,-73851.606007
2400.380180,-8290.306550,6217.729913,-75996.673402
2400.382708,-5477.523971,740.205942,-81206.122788
2400.385235,-10955.047942,-3256.906145,-79367.493593
2400.387763,8734.430116,-1628.453072,-82125.437386
2400.390291,-2812.782580,7402.059420,-77069.207099
2400.392818,-6513.812290,-1036.288319,-74311.263306
2400.395346,-3256.906145,-3404.947333,-73391.948708
2400.397874,5033.400406,1184.329507,-68029.280222
2400.400401,-1184.329507,-7698.141797,-72779.072310
2400.402929,-4737.318029,-4441.235652,-72932.291410
2400.405456,-740.205942,3404.947333,-74617.701505
2400.407984,-2072.576638,148.041188,-75537.016103
2400.410512,-3552.988522,9770.718434,-70940.443115
2400.413039,1332.370696,3997.112087,-75690.235202
2400.415567,2220.617826,444.123565,-77375.645298
2400.418094,-10510.924376,3701.029710,-70480.785816
2400.420622,4293.194464,-11547.212695,-77375.645298
2400.423150,-14359.995275,-1924.535449,-74924.139704
2400.425677,5181.441594,1776.494261,-76303.111601
2400.428205,5921.647536,3997.112087,-76609.549800
2400.430733,-6809.894666,19097.313304,-64045.583633
2400.433260,5033.400406,18505.148550,-69408.252119
2400.435788,0.000000,15248.242405,-74004.825107
2400.438315,-1628.453072,11843.295072,-71400.100414
2400.440843,3404.947333,-5625.565159,-79980.369991
2400.443371,5921.647536,3849.070898,-71246.881314
2400.445898,-6809.894666,6661.853478,-68335.718422
2400.448426,-8734.430116,11843.295072,-68488.937521
2400.450953,3552.988522,18505.148550,-71400.100414
2400.453481,3108.864956,12287.418637,-74924.139704
2400.456009,-2220.617826,15396.283594,-71400.100414
2400.458536,-2960.823768,-740.205942,-76609.549800
2400.461064,-8438.347739,-148.041188,-75996.673402
2400.463592,-5033.400406,12731.542202,-73698.386908
2400.466119,2664.741391,296.082377,-77069.207099
2400.468647,740.205942,-1480.411884,-78141.740796
2400.471187,-7254.018232,4145.153275,-72319.415011
2400.473727,-1184.329507,8734.430116,-72472.634111
2400.476267,-2220.617826,5625.565159,-79673.931792
2400.478808,4293.194464,7254.018232,-77835.302597
2400.481348,-1924.535449,15692.365970,-72319.415011
2400.483888,-9326.594869,17616.901420,-71553.319513
2400.486428,-6365.771101,14063.912898,-73545.167808
2400.488969,-2516.700203,6513.812290,-70787.224015
2400.491509,10807.006753,2368.659014,-72932.291410
2400.494049,-7994.224174,0.000000,-72779.072310
2400.496589,-2960.823768,9326.594869,-71400.100414
2400.499129,-3849.070898,10214.842000,-76915.987999
2400.501670,-10066.800811,4885.359217,-78448.178995
2400.504210,8882.471304,13619.789333,-71093.662214
2400.506750,-12583.501014,-11103.089130,-82431.875585
2400.509290,-17172.777854,-2960.823768,-74770.920605
2400.511831,-6957.935855,-7698.141797,-79214.274493
2400.514371,7846.182985,-19541.436869,-79980.369991
2400.516911,8438.347739,2516.700203,-73698.386908
2400.519451,-10214.842000,2368.659014,-74924.139704
2400.521991,-7994.224174,5625.565159,-75230.577904
2400.524532,1036.288319,11251.130318,-72012.976812
2400.527072,-8438.347739,1184.329507,-70480.785816
2400.529612,9622.677246,4885.359217,-68642.156621
2400.532152,-7402.059420,-3256.906145,-73085.510509
2400.534693,-6217.729913,-6809.894666,-76149.892501
2400.537233,-3552.988522,-1480.411884,-73851.606007
2400.539773,-3404.947333,1924.535449,-72472.634111
2400.542313,-1184.329507,-296.082377,-74158.044206
2400.544853,-1924.535449,7105.977043,-71553.319513
2400.547394,-2516.700203,8290.306550,-72012.976812
2400.549934,-5329.482782,2664.741391,-73238.729609
2400.552474,888.247130,0.000000,-71553.319513
2400.555014,-2368.659014,1036.288319,-74004.825107
2400.557555,-6217.729913,0.000000,-77069.207099
2400.560095,-4441.235652,-7550.100608,-75690.235202
2400.562635,1332.370696,-4293.194464,-74924.139704
2400.565175,-9918.759623,-10955.047942,-77528.864398
2400.567715,5181.441594,-3256.906145,-79980.369991
2400.570256,-2960.823768,6069.688724,-77375.645298
2400.572742,-9918.759623,4589.276840,-76149.892501
2400.575228,2664.741391,6809.894666,-74004.825107
2400.577714,-2368.659014,-6513.812290,-78754.617194
2400.580200,-6217.729913,-444.123565,-71093.662214
2400.582685,-6513.812290,4293.194464,-72932.291410
2400.585171,-14063.912898,-12879.583391,-80133.589091
2400.587657,9178.553681,19985.560434,-66037.431928
2400.590143,-17024.736666,-1924.535449,-85496.257577
2400.592629,14952.160028,10362.883188,-80746.465489
2400.595115,-13323.706956,21317.931130,-79673.931792
2400.597601,-15692.365970,-1036.288319,-84270.504780
2400.600087,740.205942,5477.523971,-74770.920605
2400.602573,4885.359217,-4885.359217,-79214.274493
2400.605059,1776.494261,444.123565,-74158.044206
2400.607545,-6957.935855,5625.565159,-73391.948708
2400.610031,-11103.089130,9326.594869,-70940.443115
2400.612517,7402.059420,11695.253884,-73851.606007
2400.615003,888.247130,17616.901420,-70940.443115
2400.617489,2516.700203,7254.018232,-76303.111601
2400.619975,-7402.059420,3404.947333,-74004.825107
2400.622461,-7994.224174,6957.935855,-73085.510509
2400.624947,0.000000,2220.617826,-77528.864398
2400.627433,-1924.535449,740.205942,-75690.235202
2400.629919,3256.906145,5625.565159,-72625.853210
2400.632405,-7105.977043,8290.306550,-71246.881314
2400.634890,-5773.606348,11399.171507,-70787.224015
2400.637376,2960.823768,9918.759623,-70480.785816
2400.639862,-3701.029710,11547.212695,-70327.566716
2400.642348,2220.617826,10658.965565,-76762.768900
2400.644834,-10510.924376,13175.665768,-79061.055394
2400.647320,-8142.265362,6513.812290,-73698.386908
2400.649806,11695.253884,-444.123565,-74617.701505
2400.652292,-9770.718434,-3849.070898,-76762.768900
2400.654778,-1776.494261,4885.359217,-74770.920605
2400.657264,-8882.471304,12879.583391,-72472.634111
2400.659750,-5921.647536,10066.800811,-72625.853210
2400.662236,12731.542202,14952.160028,-74158.044206
2400.664722,-9622.677246,-2516.700203,-81052.903688
2400.667208,-5033.400406,-296.082377,-76609.549800
2400.669694,-8142.265362,-13027.624579,-83657.628382
2400.672204,-7105.977043,-12879.583391,-74464.482406
2400.674713,18653.189738,-2072.576638,-75230.577904
2400.677223,-5033.400406,-2664.741391,-79061.055394
2400.679733,-6513.812290,6661.853478,-78601.398095
2400.682242,-592.164754,7550.100608,-72472.634111
2400.684752,-9770.718434,2664.741391,-70634.004916
2400.687262,6513.812290,3701.029710,-72779.072310
2400.689771,-5625.565159,-3997.112087,-76149.892501
2400.692281,-4441.235652,-6957.935855,-74770.920605
2400.694791,-5477.523971,-5329.482782,-72472.634111
2400.697300,-3404.947333,6513.812290,-68488.937521
2400.699810,3552.988522,3701.029710,-75996.673402
2400.702320,1628.453072,3404.947333,-73851.606007
2400.704830,-10214.842000,4589.276840,-68488.937521
2400.707339,3701.029710,1776.494261,-74617.701505
2400.709849,148.041188,5625.565159,-74770.920605
2400.712359,-2960.823768,-1184.329507,-75077.358804
2400.714868,2368.659014,-5477.523971,-76456.330700
2400.717378,-10214.842000,-3849.070898,-71400.100414
2400.719888,-444.123565,-6661.853478,-72932.291410
2400.722397,4293.194464,-148.041188,-71859.757712
2400.724907,-888.247130,3997.112087,-75077.358804
2400.727417,-3997.112087,9474.636058,-72319.415011
2400.729927,-3108.864956,6957.935855,-71400.100414
2400.732436,3108.864956,-5033.400406,-78907.836294
2400.734946,-5181.441594,6809.894666,-69714.690318
2400.737456,148.041188,-4441.235652,-77528.864398
2400.739965,-7550.100608,-9030.512492,-80593.246390
2400.742475,-2960.823768,6661.853478,-70021.128517
2400.744985,2516.700203,-4293.194464,-82738.313784
2400.747494,2516.700203,17320.819043,-68795.375720
2400.750004,-10658.965565,24870.919651,-74924.139704
2400.752514,-11103.089130,2664.741391,-79827.150892
2400.755023,2072.576638,10214.842000,-70480.785816
2400.757533,-1036.288319,-2812.782580,-78448.178995
2400.760043,8438.347739,148.041188,-73238.729609
2400.762553,-7846.182985,9770.718434,-69561.471218
2400.765062,-16284.530724,6957.935855,-71553.319513
2400.767572,10214.842000,11991.336260,-71246.881314
2400.770082,-1480.411884,18801.230927,-70327.566716
2400.772609,2516.700203,13027.624579,-74004.825107
2400.775136,-4737.318029,5773.606348,-71553.319513
2400.777663,-10066.800811,148.041188,-75996.673402
2400.780190,-3701.029710,740.205942,-79061.055394
2400.782717,-1628.453072,1480.411884,-82278.656485
2400.785244,2812.782580,3108.864956,-77222.426198
2400.787771,-6217.729913,7846.182985,-71400.100414
2400.790298,-7550.100608,9030.512492,-75843.454302
2400.792825,888.247130,4885.359217,-80286.808190
2400.795352,1628.453072,13619.789333,-74770.920605
2400.797879,-10807.006753,11251.130318,-75383.797003
2400.800406,1036.288319,10807.006753,-73851.606007
2400.802933,740.205942,9178.553681,-73851.606007
2400.805460,-5033.400406,1332.370696,-74770.920605
2400.807988,-2220.617826,1332.370696,-74770.920605
2400.810515,-1184.329507,1628.453072,-77069.207099
2400.813042,-13915.871710,7698.141797,-76149.892501
2400.815569,10658.965565,11103.089130,-75843.454302
2400.818096,-2072.576638,-4737.318029,-82278.656485
2400.820623,-1924.535449,11547.212695,-65884.212828
2400.823150,-11547.212695,-5329.482782,-73698.386908
2400.825677,10214.842000,-10214.842000,-73545.167808
2400.828204,-1480.411884,2664.741391,-68029.280222
2400.830731,6217.729913,-10066.800811,-80286.808190
2400.833258,-7994.224174,12139.377449,-69867.909418
2400.835785,-13027.624579,1480.411884,-79214.274493
2400.838312,8290.306550,-444.123565,-80593.246390
2400.840839,-1184.329507,3404.947333,-78294.959896
2400.843366,-4589.276840,-5921.647536,-80440.027290
2400.845893,-444.123565,-1628.453072,-74770.920605
2400.848421,-8734.430116,-8882.471304,-74464.482406
2400.850948,0.000000,-6069.688724,-75843.454302
2400.853475,1184.329507,8290.306550,-76149.892501
2400.856002,-7105.977043,-3997.112087,-81512.560987
2400.858529,-5181.441594,1332.370696,-70787.224015
2400.861056,-5033.400406,14952.160028,-65118.117330
2400.863583,7105.977043,-1776.494261,-80593.246390
2400.866110,-5033.400406,1036.288319,-73545.167808
2400.868637,-2960.823768,-148.041188,-69561.471218
2400.871164,-4293.194464,-15396.283594,-78294.959896
2400.873705,-5477.523971,-3701.029710,-71859.757712
2400.876246,4885.359217,-3256.906145,-75537.016103
2400.878787,2812.782580,-296.082377,-77528.864398
2400.881328,-9030.512492,10955.047942,-69255.033019
2400.883868,2664.741391,4589.276840,-72932.291410
2400.886409,-148.041188,-5181.441594,-74924.139704
2400.888950,148.041188,1924.535449,-72166.195912
2400.891491,-1480.411884,3701.029710,-71553.319513
2400.894032,-15100.201217,-10807.006753,-76456.330700
2400.896573,11843.295072,17172.777854,-66343.870127
2400.899114,-15840.407159,-2664.741391,-85649.476676
2400.901655,9178.553681,14063.912898,-80133.589091
2400.904195,-7254.018232,20429.683999,-76149.892501
2400.906736,-15692.365970,3701.029710,-80746.465489
2400.909277,3997.112087,7402.059420,-75537.016103
2400.911818,2812.782580,-4293.194464,-79827.150892
2400.914359,-444.123565,2960.823768,-72779.072310
2400.916900,-6069.688724,4885.359217,-76456.330700
2400.919441,-13915.871710,10510.924376,-72472.634111
2400.921982,5033.400406,13323.706956,-74004.825107
2400.924522,4589.276840,10807.006753,-75996.673402
2400.927063,-1184.329507,6513.812290,-80746.465489
2400.929604,-6661.853478,3256.906145,-78141.740796
2400.932145,-4293.194464,1036.288319,-74617.701505
2400.934686,-5921.647536,2220.617826,-74924.139704
2400.937227,5921.647536,3552.988522,-75077.358804
2400.939768,-1924.535449,3108.864956,-76609.549800
2400.942309,-740.205942,10214.842000,-75690.235202
2400.944849,-6513.812290,13619.789333,-69714.690318
2400.947390,-5033.400406,11991.336260,-71093.662214
2400.949931,2960.823768,9030.512492,-76609.549800
2400.952472,-1184.329507,11695.253884,-74617.701505
2400.955013,5773.606348,10658.965565,-74464.482406
2400.957554,-8882.471304,2368.659014,-77682.083497
2400.960095,-2368.659014,3552.988522,-69714.690318
2400.962636,-2220.617826,7846.182985,-73238.729609
2400.965176,2516.700203,5329.482782,-78448.178995
2400.967717,7105.977043,17468.860231,-73698.386908
2400.970258,-13471.748144,-5773.606348,-80440.027290
2400.972799,-1184.329507,5921.647536,-69867.909418
2400.975351,-13175.665768,-9770.718434,-80133.589091
2400.977903,2072.576638,-8438.347739,-75383.797003
2400.980455,13471.748144,296.082377,-72319.415011
2400.983007,-4441.235652,-8734.430116,-75537.016103
2400.985559,-10658.965565,11547.212695,-68488.937521
2400.988111,-4145.153275,1924.535449,-79061.055394
2400.990663,4737.318029,1480.411884,-77988.521696
2400.993215,2072.576638,4589.276840,-73851.606007
2400.995767,-9474.636058,-1036.288319,-73698.386908
2400.998318,148.041188,-2960.823768,-71859.757712
2401.000870,-7402.059420,-2960.823768,-72319.415011
2401.003422,2664.741391,-5773.606348,-79827.150892
2401.005974,-3108.864956,6809.894666,-73238.729609
2401.008526,-3404.947333,5329.482782,-72472.634111
2401.011078,-7254.018232,0.000000,-74924.139704
2401.013630,-4145.153275,6661.853478,-72472.634111
2401.016182,3404.947333,-3108.864956,-75843.454302
2401.018734,-740.205942,-148.041188,-70480.785816
2401.021286,-6809.894666,-1184.329507,-71093.662214
2401.023838,-5773.606348,-7550.100608,-74158.044206
2401.026390,-1036.288319,3997.112087,-66190.651027
2401.028942,-148.041188,3108.864956,-70787.224015
2401.031494,-7550.100608,2516.700203,-70021.128517
2401.034046,148.041188,13767.830521,-66956.746525
2401.036598,5625.565159,-5181.441594,-79673.931792
2401.039150,-8142.265362,1332.370696,-72932.291410
2401.041701,2812.782580,5773.606348,-69255.033019
2401.044253,-13027.624579,-8290.306550,-75843.454302
2401.046805,3701.029710,13027.624579,-72319.415011
2401.049357,-8586.388927,-6069.688724,-86875.229473
2401.051909,4885.359217,9326.594869,-78294.959896
2401.054461,-8882.471304,19689.478057,-75690.235202
2401.057013,-7846.182985,5329.482782,-79673.931792
2401.059565,-1036.288319,12435.459826,-75690.235202
2401.062117,6809.894666,-4293.194464,-81512.560987
2401.064669,-5477.523971,296.082377,-72012.976812
2401.067221,-1628.453072,4441.235652,-72319.415011
2401.069773,-11695.253884,7994.224174,-73851.606007
2401.072325,2516.700203,11251.130318,-75690.235202
2401.074877,3256.906145,11991.336260,-74617.701505
2401.077436,1184.329507,9178.553681,-74004.825107
2401.079997,-3256.906145,4589.276840,-70480.785816
2401.082557,-2516.700203,7994.224174,-69101.813920
2401.085118,-3701.029710,11843.295072,-72472.634111
2401.087679,1628.453072,296.082377,-75383.797003
2401.090239,2812.782580,5329.482782,-68795.375720
2401.092800,-5329.482782,17320.819043,-68948.594820
2401.095360,-3997.112087,5329.482782,-80899.684589
2401.097921,-2368.659014,12139.377449,-75230.577904
2401.100481,-5625.565159,12879.583391,-70940.443115
2401.103042,14359.995275,296.082377,-78448.178995
2401.105603,-1776.494261,11399.171507,-75690.235202
2401.108163,-12287.418637,1924.535449,-78294.959896
2401.110724,-4885.359217,-444.123565,-76149.892501
2401.113284,-7698.141797,8142.265362,-70327.566716
2401.115845,6217.729913,4737.318029,-72779.072310
2401.118405,6365.771101,16284.530724,-74158.044206
2401.120966,-1036.288319,-444.123565,-81512.560987
2401.123526,-16876.695478,-3701.029710,-74464.482406
2401.126087,-4441.235652,-8734.430116,-79673.931792
2401.128648,2368.659014,-14063.912898,-76609.549800
2401.131208,9770.718434,148.041188,-77222.426198
2401.133769,-6365.771101,3108.864956,-76456.330700
2401.136329,-9326.594869,-740.205942,-76303.111601
2401.138890,-2960.823768,4441.235652,-74924.139704
2401.141450,740.205942,1628.453072,-76149.892501
2401.144011,2960.823768,2960.823768,-75843.454302
2401.146572,-6957.935855,444.123565,-76456.330700
2401.149132,-6809.894666,-5921.647536,-74464.482406
2401.151693,-8734.430116,-5773.606348,-72779.072310
2401.154253,4885.359217,296.082377,-76149.892501
2401.156814,2220.617826,6069.688724,-77375.645298
2401.159374,-11251.130318,4145.153275,-73238.729609
2401.161935,-5181.441594,-2368.659014,-75230.577904
2401.164495,-2664.741391,740.205942,-77682.083497
2401.167056,-1628.453072,-2664.741391,-77988.521696
2401.169617,-1924.535449,-9622.677246,-77835.302597
2401.172177,-10362.883188,-8586.388927,-77528.864398
2401.174738,1184.329507,-1480.411884,-72472.634111
2401.177298,-2664.741391,-444.123565,-72932.291410
2401.179864,-8734.430116,2220.617826,-75383.797003
2401.182430,8142.265362,11547.212695,-72319.415011
2401.184996,-5329.482782,-2812.782580,-78754.617194
2401.187562,-7550.100608,740.205942,-73085.510509
2401.190128,1332.370696,6513.812290,-71859.757712
2401.192693,-15988.448347,-9474.636058,-81665.780087
2401.195259,10066.800811,11547.212695,-71093.662214
2401.197825,-13767.830521,-4885.359217,-85189.819378
2401.200391,12879.583391,9326.594869,-80746.465489
2401.202957,-3256.906145,14952.160028,-78448.178995
2401.205523,-14804.118840,7846.182985,-79367.493593
2401.208089,2960.823768,6957.935855,-77988.521696
2401.210654,6661.853478,296.082377,-76915.987999
2401.213220,-5477.523971,3108.864956,-71706.538613
2401.215786,-6365.771101,3849.070898,-72932.291410
2401.218352,-17172.777854,13027.624579,-72012.976812
2401.220918,6661.853478,5921.647536,-78601.398095
2401.223484,-592.164754,12139.377449,-74924.139704
2401.226050,-1776.494261,10658.965565,-74311.263306
2401.228615,1036.288319,4293.194464,-75383.797003
2401.231181,-11103.089130,3849.070898,-74158.044206
2401.233747,-2960.823768,3552.988522,-76149.892501
2401.236313,1480.411884,6365.771101,-73698.386908
2401.238879,3108.864956,7402.059420,-73851.606007
2401.241445,-3997.112087,13619.789333,-75843.454302
2401.244011,-14656.077652,15100.201217,-75843.454302
2401.246576,-7105.977043,10362.883188,-77222.426198
2401.249142,8586.388927,5625.565159,-74311.263306
2401.251708,2664.741391,7550.100608,-77528.864398
2401.254274,-3404.947333,2220.617826,-80593.246390
2401.256840,-11695.253884,9326.594869,-69101.813920
2401.259406,-4885.359217,6069.688724,-72166.195912
2401.261972,-1184.329507,296.082377,-74311.263306
2401.264537,6069.688724,14508.036463,-72012.976812
2401.267103,-4293.194464,444.123565,-82431.875585
2401.269669,-1924.535449,2960.823768,-71553.319513
2401.272235,-17764.942608,-5033.400406,-72166.195912
2401.274801,-2812.782580,-10214.842000,-73085.510509
2401.277367,17024.736666,592.164754,-77375.645298
2401.279933,-4737.318029,-1776.494261,-79061.055394
2401.282503,-11991.336260,7698.141797,-70174.347617
2401.285073,-11103.089130,1184.329507,-71859.757712
2401.287643,7402.059420,-2368.659014,-75690.235202
2401.290213,5921.647536,4293.194464,-76762.768900
2401.292783,-7254.018232,-1036.288319,-78601.398095
2401.295353,-3404.947333,-1776.494261,-71400.100414
2401.297923,-9326.594869,-888.247130,-68795.375720
2401.300493,5625.565159,-1480.411884,-72932.291410
2401.303063,1628.453072,12139.377449,-70787.224015
2401.305633,-1628.453072,4885.359217,-77528.864398
2401.308203,-7550.100608,-1776.494261,-73391.948708
2401.310773,-7254.018232,1332.370696,-73851.606007
2401.313343,-2516.700203,-2072.576638,-75537.016103
2401.315913,1924.535449,-10955.047942,-82125.437386
2401.318483,148.041188,-3108.864956,-77375.645298
2401.321053,-5181.441594,-3404.947333,-75537.016103
2401.323623,-10510.924376,-3108.864956,-76149.892501
2401.326193,-6513.812290,-5477.523971,-78754.617194
2401.328763,10066.800811,6217.729913,-74158.044206
2401.331333,2072.576638,1776.494261,-76303.111601
2401.333903,-148.041188,-3849.070898,-79061.055394
2401.336473,-14804.118840,-592.164754,-73545.167808
2401.339043,-4737.318029,-6365.771101,-75996.673402
2401.341613,4441.235652,16284.530724,-65577.774629
2401.344183,-5921.647536,13767.830521,-70480.785816
2401.346753,-2812.782580,21169.889941,-69255.033019
2401.349323,-1776.494261,12287.418637,-70634.004916
2401.351893,-21021.848753,10510.924376,-66497.089226
2401.354463,15840.407159,9770.718434,-75383.797003
2401.357033,5329.482782,3849.070898,-78754.617194
2401.359603,-8586.388927,5773.606348,-75537.016103
2401.362173,-3997.112087,1776.494261,-76303.111601
2401.364747,-17468.860231,6809.894666,-75690.235202
2401.367320,5477.523971,11251.130318,-77375.645298
2401.369893,6957.935855,10066.800811,-75690.235202
2401.372467,-5329.482782,6069.688724,-74770.920605
2401.375040,-3552.988522,-5625.565159,-79673.931792
2401.377614,-9622.677246,3404.947333,-76915.987999
2401.380187,3849.070898,6069.688724,-77988.521696
2401.382761,8142.265362,5477.523971,-79520.712692
2401.385334,-6217.729913,13323.706956,-75230.577904
2401.387907,-15544.324782,8142.265362,-77682.083497
2401.390481,-3256.906145,11547.212695,-79061.055394
2401.393054,740.205942,5773.606348,-77682.083497
2401.395628,8290.306550,7698.141797,-76915.987999
2401.398201,-8438.347739,6365.771101,-75077.358804
2401.400775,-6513.812290,4589.276840,-74311.263306
2401.403348,-6069.688724,11695.253884,-71706.538613
2401.405921,-3701.029710,888.247130,-76456.330700
2401.408495,13767.830521,10362.883188,-73698.386908
2401.411068,-8734.430116,-2072.576638,-78754.617194
2401.413642,-3552.988522,2072.576638,-71400.100414
2401.416215,-13915.871710,-8290.306550,-77682.083497
2401.418789,-4589.276840,-10658.965565,-76609.549800
2401.421362,17912.983796,2516.700203,-76149.892501
2401.423935,-6365.771101,296.082377,-76303.111601
2401.426509,-11991.336260,8142.265362,-69867.909418
2401.429082,-3404.947333,-888.247130,-74158.044206
2401.431656,-3404.947333,-888.247130,-76149.892501
2401.434229,11103.089130,1332.370696,-75537.016103
2401.436803,-7402.059420,-1628.453072,-77069.207099
2401.439376,-8586.388927,-1776.494261,-77222.426198
2401.441949,-7698.141797,-5477.523971,-73391.948708
2401.444523,-3849.070898,444.123565,-72166.195912
2401.447096,10510.924376,7846.182985,-69101.813920
2401.449670,592.164754,3701.029710,-71400.100414
2401.452243,-10807.006753,4589.276840,-74617.701505
2401.454817,-7402.059420,-4589.276840,-76915.987999
2401.457390,3404.947333,-8142.265362,-75843.454302
2401.459963,6365.771101,-4441.235652,-74004.825107
2401.462537,5921.647536,-1628.453072,-72166.195912
2401.465110,-10362.883188,6365.771101,-69561.471218
2401.467685,-15988.448347,1924.535449,-69101.813920
2401.470260,4441.235652,1628.453072,-70940.443115
2401.472835,9178.553681,-3701.029710,-77222.426198
2401.475409,-4737.318029,7402.059420,-69561.471218
2401.477984,-2664.741391,6365.771101,-75383.797003
2401.480559,-11843.295072,-8734.430116,-79520.712692
2401.483134,-4885.359217,7254.018232,-68029.280222
2401.485708,-1480.411884,-3849.070898,-82125.437386
2401.488283,9770.718434,10510.924376,-77069.207099
2401.490858,-4737.318029,22354.219448,-75383.797003
2401.493433,-20429.683999,2664.741391,-80593.246390
2401.496008,2812.782580,3404.947333,-75537.016103
2401.498582,888.247130,2664.741391,-74311.263306
2401.501157,11991.336260,5477.523971,-73851.606007
2401.503732,-7105.977043,8734.430116,-74004.825107
2401.506307,-19985.560434,10658.965565,-74464.482406
2401.508882,1332.370696,7402.059420,-75996.673402
2401.511456,-3108.864956,11399.171507,-71093.662214
2401.514031,8438.347739,6957.935855,-71706.538613
2401.516606,-148.041188,9178.553681,-69714.690318
2401.519181,-6069.688724,2664.741391,-72166.195912
2401.521755,-1184.329507,5033.400406,-70787.224015
2401.524330,1628.453072,10807.006753,-71246.881314
2401.526905,2220.617826,11547.212695,-75383.797003
2401.529480,-4589.276840,14952.160028,-76762.768900
2401.532055,-8586.388927,15840.407159,-76609.549800
2401.534629,-3108.864956,1480.411884,-77375.645298
2401.537204,8438.347739,6661.853478,-73851.606007
2401.539779,-5773.606348,3108.864956,-76303.111601
2401.542354,-3108.864956,9474.636058,-74004.825107
2401.544928,-9178.553681,12879.583391,-73391.948708
2401.547503,-4293.194464,-888.247130,-75843.454302
2401.550078,11399.171507,11547.212695,-70787.224015
2401.552653,-8290.306550,-4589.276840,-81665.780087
2401.555228,1036.288319,9770.718434,-68795.375720
2401.557802,-15988.448347,-7550.100608,-76456.330700
2401.560377,-1036.288319,-19541.436869,-80593.246390
2401.562952,13915.871710,2812.782580,-72319.415011
2401.565527,-5773.606348,0.000000,-77222.426198
2401.568102,-6069.688724,5921.647536,-75077.358804
2401.570678,-9178.553681,6217.729913,-73698.386908
2401.573254,-888.247130,-2664.741391,-73851.606007
2401.575830,11399.171507,1480.411884,-72319.415011
2401.578406,-8734.430116,-1924.535449,-75690.235202
2401.580982,-1184.329507,-5329.482782,-76762.768900
2401.583558,-11103.089130,-3701.029710,-74770.920605
2401.586134,-1628.453072,-1776.494261,-76609.549800
2401.588710,7105.977043,2516.700203,-77988.521696
2401.591286,-2220.617826,296.082377,-79673.931792
2401.593862,-10066.800811,-888.247130,-79980.369991
2401.596438,-14952.160028,-5773.606348,-77682.083497
2401.599014,3849.070898,-10658.965565,-75383.797003
2401.601590,9178.553681,-9030.512492,-71246.881314
2401.604166,2664.741391,3552.988522,-70327.566716
2401.606743,-13175.665768,7994.224174,-72166.195912
2401.609319,-10807.006753,-1924.535449,-77222.426198
2401.611895,6513.812290,740.205942,-75383.797003
2401.614471,2516.700203,-4589.276840,-75996.673402
2401.617047,2368.659014,-1184.329507,-79827.150892
2401.619623,-14063.912898,5477.523971,-76762.768900
2401.622199,-10362.883188,-8882.471304,-80133.589091
2401.624775,-296.082377,10510.924376,-68642.156621
2401.627351,888.247130,9918.759623,-71093.662214
2401.629927,3849.070898,26351.331535,-68335.718422
2401.632503,-5033.400406,13323.706956,-77069.207099
2401.635079,-19541.436869,11103.089130,-65884.212828
2401.637655,4885.359217,6661.853478,-70174.347617
2401.640231,10066.800811,-3256.906145,-78141.740796
2401.642807,-2220.617826,8142.265362,-75843.454302
2401.645383,-9474.636058,7402.059420,-78907.836294
2401.647960,-13323.706956,8142.265362,-73391.948708
2401.650536,-4589.276840,12139.377449,-72319.415011
2401.653112,5625.565159,8734.430116,-75996.673402
2401.655688,3997.112087,6513.812290,-76762.768900
2401.658264,-9326.594869,5625.565159,-73545.167808
2401.660840,-5033.400406,3849.070898,-72166.195912
2401.663416,-6957.935855,6513.812290,-72779.072310
2401.665992,4737.318029,12731.542202,-69867.909418
2401.668568,-5477.523971,18949.272115,-71093.662214
2401.671144,-7698.141797,17468.860231,-80593.246390
2401.673720,-5625.565159,6069.688724,-83351.190182
2401.676296,3256.906145,4293.194464,-79061.055394
2401.678872,-10362.883188,-3997.112087,-81359.341888
2401.681448,444.123565,1332.370696,-79367.493593
2401.684023,-9474.636058,13767.830521,-76762.768900
2401.686599,-3701.029710,1036.288319,-79367.493593
2401.689175,9178.553681,10066.800811,-71706.538613
2401.691751,-6513.812290,-4145.153275,-78448.178995
2401.694327,2072.576638,6365.771101,-68488.937521
2401.696903,-18505.148550,-3256.906145,-74464.482406
2401.699478,-1332.370696,-14952.160028,-78448.178995
2401.702054,16284.530724,-1628.453072,-72012.976812
2401.704630,-13767.830521,444.123565,-72319.415011
2401.707206,-1036.288319,7994.224174,-72472.634111
2401.709782,-9030.512492,9770.718434,-70940.443115
2401.712358,-3256.906145,0.000000,-74158.044206
2401.714934,12435.459826,444.123565,-72932.291410
2401.717509,-13323.706956,-4441.235652,-75843.454302
2401.720085,296.082377,-5477.523971,-76609.549800
2401.722661,-9030.512492,3404.947333,-75843.454302
2401.725237,-5181.441594,3849.070898,-77528.864398
2401.727813,4145.153275,3849.070898,-75383.797003
2401.730389,-4589.276840,-888.247130,-80286.808190
2401.732965,-9770.718434,-888.247130,-81512.560987
2401.735540,-11103.089130,-2812.782580,-72625.853210
2401.738116,740.205942,-8586.388927,-72319.415011
2401.740692,13915.871710,-11843.295072,-76456.330700
2401.743268,-6513.812290,2812.782580,-74464.482406
2401.745844,-16136.489536,888.247130,-75996.673402
2401.748420,296.082377,9030.512492,-71093.662214
2401.750995,1184.329507,-3701.029710,-74617.701505
2401.753571,-1184.329507,-2812.782580,-74770.920605
2401.756147,3108.864956,9474.636058,-67569.622924
2401.758723,-22502.260637,-7698.141797,-74770.920605
2401.761299,10362.883188,13619.789333,-67569.622924
2401.763875,-3552.988522,5477.523971,-76915.987999
2401.766451,7402.059420,9770.718434,-75537.016103
2401.769026,-2812.782580,21614.013506,-75843.454302
2401.771602,-17172.777854,9474.636058,-78294.959896
2401.774178,2220.617826,2220.617826,-78754.617194
2401.776754,7105.977043,-2220.617826,-78294.959896
2401.779330,-592.164754,6365.771101,-71400.100414
2401.781905,1332.370696,3849.070898,-74617.701505
2401.784481,-20281.642811,9474.636058,-73698.386908
2401.787057,-4441.235652,13619.789333,-73545.167808
2401.789633,5181.441594,8882.471304,-72625.853210
2401.792209,1036.288319,5033.400406,-71706.538613
2401.794784,2220.617826,7698.141797,-71400.100414
2401.797360,-11843.295072,8438.347739,-72319.415011
2401.799936,444.123565,6217.729913,-75230.577904
2401.802512,444.123565,9918.759623,-71553.319513
2401.805087,-7846.182985,13323.706956,-73698.386908
2401.807663,4737.318029,14508.036463,-79673.931792
2401.810239,2960.823768,12731.542202,-75077.358804
2401.812815,-4589.276840,8734.430116,-71553.319513
2401.815391,-1036.288319,-3997.112087,-75230.577904
2401.817966,-6809.894666,3108.864956,-74464.482406
2401.820542,-4441.235652,12287.418637,-72779.072310
2401.823118,1480.411884,10658.965565,-73238.729609
2401.825694,148.041188,16284.530724,-71093.662214
2401.828270,296.082377,-2072.576638,-78294.959896
2401.830845,-15396.283594,-4145.153275,-78141.740796
2401.833421,-6513.812290,-7550.100608,-81359.341888
2401.835997,-1628.453072,-11991.336260,-78601.398095
2401.838573,4885.359217,-2812.782580,-75690.235202
2401.841148,-6661.853478,-2368.659014,-74464.482406
2401.843724,-4885.359217,5033.400406,-70327.566716
2401.846300,-5477.523971,4737.318029,-72932.291410
2401.848876,2516.700203,6513.812290,-72012.976812
2401.851452,0.000000,-3404.947333,-75996.673402
2401.854027,-2220.617826,-3849.070898,-74617.701505
2401.856603,-8586.388927,-3849.070898,-72625.853210
2401.859179,-7994.224174,-2220.617826,-79673.931792
2401.861755,3256.906145,3849.070898,-74004.825107
2401.864330,0.000000,6513.812290,-68182.499322
2401.866906,-2812.782580,2516.700203,-71859.757712
2401.869482,-12583.501014,-4293.194464,-75843.454302
2401.872058,-1184.329507,-2812.782580,-75843.454302
2401.874634,9030.512492,-8438.347739,-76303.111601
2401.877209,-1776.494261,-5921.647536,-74617.701505
2401.879785,-14656.077652,4145.153275,-69101.813920
2401.882361,-1332.370696,8438.347739,-66956.746525
2401.884937,7254.018232,-1480.411884,-76762.768900
2401.887513,-1184.329507,8734.430116,-68488.937521
2401.890089,-1332.370696,2220.617826,-73545.167808
2401.892665,-11251.130318,-7698.141797,-81052.903688
2401.895240,-1924.535449,6069.688724,-69255.033019
2401.897816,-2664.741391,-5477.523971,-81665.780087
2401.900392,7254.018232,11991.336260,-72472.634111
2401.902968,0.000000,30348.443622,-65118.117330
2401.905544,-6365.771101,5921.647536,-80133.589091
2401.908120,-11695.253884,15248.242405,-68335.718422
2401.910696,0.000000,6365.771101,-74924.139704
2401.913272,10362.883188,-2812.782580,-79214.274493
2401.915847,148.041188,2664.741391,-74617.701505
2401.918423,-14804.118840,10214.842000,-71246.881314
2401.920999,-2516.700203,8734.430116,-72472.634111
2401.923575,-3552.988522,13619.789333,-70634.004916
2401.926151,6661.853478,11251.130318,-71093.662214
2401.928727,2812.782580,6957.935855,-72319.415011
2401.931303,-15988.448347,-740.205942,-78294.959896
2401.933879,-2664.741391,2368.659014,-79214.274493
2401.936454,-7402.059420,11695.253884,-74924.139704
2401.939030,-5773.606348,8438.347739,-78448.178995
2401.941606,8586.388927,17764.942608,-76915.987999
2401.944182,-12139.377449,14656.077652,-77375.645298
2401.946758,6069.688724,8438.347739,-80746.465489
2401.949334,-12731.542202,-1036.288319,-75690.235202
2401.951910,-4589.276840,-592.164754,-78294.959896
2401.954485,-4885.359217,7550.100608,-73545.167808
2401.957061,2664.741391,8734.430116,-73085.510509
2401.959637,-6217.729913,16876.695478,-73698.386908
2401.962213,4589.276840,-5033.400406,-83351.190182
2401.964789,-16580.613101,-2664.741391,-76303.111601
2401.967365,-1628.453072,-7846.182985,-78601.398095
2401.969941,-3404.947333,-15100.201217,-79827.150892
2401.972517,7254.018232,-1480.411884,-77069.207099
2401.975092,-10066.800811,-1036.288319,-77375.645298
2401.977668,-7402.059420,4441.235652,-73238.729609
2401.980244,-5181.441594,3997.112087,-74617.701505
2401.982819,-1184.329507,2960.823768,-76762.768900
2401.985394,2812.782580,-888.247130,-77528.864398
2401.987968,-3701.029710,-6069.688724,-79214.274493
2401.990543,-11251.130318,-1628.453072,-70940.443115
2401.993118,-6365.771101,3552.988522,-71553.319513
2401.995693,0.000000,3404.947333,-74770.920605
2401.998267,-1628.453072,6809.894666,-73698.386908
2402.000842,-444.123565,1332.370696,-72932.291410
2402.003417,-16432.571912,-5477.523971,-73391.948708
2402.005992,7550.100608,-5921.647536,-74924.139704
2402.008566,1480.411884,-7105.977043,-73391.948708
2402.011141,-4441.235652,-6661.853478,-77069.207099
2402.013716,-9770.718434,-4293.194464,-74770.920605
2402.016291,-740.205942,9178.553681,-70174.347617
2402.018865,3849.070898,1036.288319,-74158.044206
2402.021440,-6217.729913,7550.100608,-69867.909418
2402.024015,-8734.430116,10658.965565,-69408.252119
2402.026590,-7846.182985,-9622.677246,-77069.207099
2402.029164,5033.400406,15692.365970,-63126.269035
2402.031739,-6069.688724,5773.606348,-75690.235202
2402.034314,9918.759623,9770.718434,-75843.454302
2402.036888,-6661.853478,22502.260637,-76609.549800
2402.039463,-13175.665768,9474.636058,-77222.426198
2402.042038,-2516.700203,4293.194464,-76303.111601
2402.044613,1776.494261,3404.947333,-77528.864398
2402.047187,3256.906145,1776.494261,-76915.987999
2402.049762,-2812.782580,3552.988522,-75690.235202
2402.052337,-14063.912898,8142.265362,-72472.634111
2402.054912,-2664.741391,10510.924376,-71246.881314
2402.057486,-2664.741391,13619.789333,-72012.976812
2402.060061,6661.853478,6365.771101,-75843.454302
2402.062636,-1924.535449,6365.771101,-73238.729609
2402.065211,-10510.924376,5033.400406,-70940.443115
2402.067785,-3552.988522,5033.400406,-74004.825107
2402.070360,-4885.359217,10955.047942,-75230.577904
2402.072935,-1776.494261,14656.077652,-76303.111601
2402.075510,3701.029710,15988.448347,-75996.673402
2402.078084,-444.123565,17024.736666,-71706.538613
2402.080659,-12287.418637,-1776.494261,-75843.454302
2402.083234,148.041188,-296.082377,-76149.892501
2402.085807,-2664.741391,6513.812290,-73851.606007
2402.088381,-2960.823768,3997.112087,-74617.701505
2402.090954,5181.441594,16580.613101,-71400.100414
2402.093528,-3701.029710,-4441.235652,-78141.740796
2402.096102,-9030.512492,1628.453072,-72166.195912
2402.098676,-7105.977043,-4885.359217,-78448.178995
2402.101250,-888.247130,-12731.542202,-75843.454302
2402.103824,10658.965565,-1036.288319,-74924.139704
2402.106398,-8290.306550,-5181.441594,-76456.330700
2402.108972,-3701.029710,3552.988522,-72932.291410
2402.111546,-5921.647536,5329.482782,-74770.920605
2402.114120,1332.370696,444.123565,-74924.139704
2402.116694,8438.347739,-1332.370696,-78754.617194
2402.119268,-4885.359217,0.000000,-77069.207099
2402.121842,-5033.400406,-6661.853478,-73698.386908
2402.124416,-6069.688724,-3701.029710,-70327.566716
2402.126990,6809.894666,8734.430116,-72625.853210
2402.129564,-296.082377,7846.182985,-68488.937521
2402.132138,-6069.688724,-1184.329507,-72319.415011
2402.134712,-888.247130,-2812.782580,-74617.701505
2402.137286,-4885.359217,-9622.677246,-81052.903688
2402.139860,1628.453072,-12583.501014,-83504.409282
2402.142434,-5329.482782,-4885.359217,-78601.398095
2402.145008,-11103.089130,-4885.359217,-79061.055394
2402.147582,5477.523971,-296.082377,-78907.836294
2402.150156,-6957.935855,4145.153275,-75537.016103
2402.152730,5921.647536,-2072.576638,-79827.150892
2402.155304,-10955.047942,5329.482782,-72625.853210
2402.157878,-7994.224174,-3404.947333,-76915.987999
2402.160452,3552.988522,11843.295072,-69101.813920
2402.163026,-3108.864956,9474.636058,-69867.909418
2402.165600,-148.041188,19097.313304,-70174.347617
2402.168174,-2960.823768,12879.583391,-75843.454302
2402.170748,-15544.324782,16432.571912,-69714.690318
2402.173322,6513.812290,3849.070898,-78907.836294
2402.175896,2960.823768,2072.576638,-74617.701505
2402.178470,-3552.988522,3256.906145,-71706.538613
2402.181044,-4293.194464,3849.070898,-73545.167808
2402.183618,-6809.894666,9770.718434,-73085.510509
2402.186192,-1480.411884,15988.448347,-68948.594820
2402.188765,2664.741391,14952.160028,-64964.898230
2402.191339,-1924.535449,3849.070898,-68029.280222
2402.193912,-2072.576638,6217.729913,-70174.347617
2402.196485,-5329.482782,9474.636058,-74158.044206
2402.199059,-5181.441594,9030.512492,-74158.044206
2402.201632,3552.988522,9770.718434,-74770.920605
2402.204205,3849.070898,17912.983796,-73545.167808
2402.206778,2664.741391,15248.242405,-75843.454302
2402.209352,-12287.418637,4293.194464,-75690.235202
2402.211925,-3997.112087,2960.823768,-74464.482406
2402.214498,-1776.494261,2516.700203,-75230.577904
2402.217072,296.082377,3701.029710,-75077.358804
2402.219645,9178.553681,14063.912898,-75230.577904
2402.222218,-13175.665768,-6217.729913,-80440.027290
2402.224792,-2220.617826,5773.606348,-69408.252119
2402.227365,-11251.130318,-5773.606348,-76915.987999
2402.229938,4737.318029,-9178.553681,-74464.482406
2402.232512,6957.935855,1332.370696,-73391.948708
2402.235085,444.123565,-5921.647536,-77069.207099
2402.237658,-5477.523971,4589.276840,-72779.072310
2402.240232,-7254.018232,2516.700203,-72625.853210
2402.242805,2220.617826,3701.029710,-71859.757712
2402.245378,7994.224174,1332.370696,-76915.987999
2402.247952,-2516.700203,-296.082377,-77528.864398
2402.250525,-8438.347739,1628.453072,-71859.757712
2402.253098,-9770.718434,-2812.782580,-73698.386908
2402.255671,1036.288319,1332.370696,-79827.150892
2402.258245,-888.247130,3701.029710,-79980.369991
2402.260818,-1036.288319,-5773.606348,-79367.493593
2402.263391,-9622.677246,148.041188,-72932.291410
2402.265965,-1924.535449,-10807.006753,-77682.083497
2402.268538,4737.318029,-9326.594869,-78294.959896
2402.271111,-10955.047942,-6513.812290,-75537.016103
2402.273685,3552.988522,4441.235652,-74004.825107
2402.276258,-1924.535449,-2960.823768,-77682.083497
2402.278831,-7846.182985,8438.347739,-70327.566716
2402.281405,740.205942,7994.224174,-72319.415011
2402.283978,-16136.489536,-4145.153275,-79980.369991
2402.286551,4441.235652,11695.253884,-71246.881314
2402.289125,-2812.782580,-8586.388927,-84117.285680
2402.291696,-296.082377,5329.482782,-77069.207099
2402.294268,-3552.988522,20577.725188,-73238.729609
2402.296840,-6661.853478,7550.100608,-83044.751983
2402.299411,-10362.883188,17024.736666,-70787.224015
2402.301983,6069.688724,7105.977043,-74770.920605
2402.304555,1628.453072,3108.864956,-76303.111601
2402.307127,592.164754,3997.112087,-75537.016103
2402.309698,-11399.171507,5773.606348,-74617.701505
2402.312270,-2812.782580,9326.594869,-74770.920605
2402.314842,148.041188,15544.324782,-69867.909418
2402.317414,-4441.235652,3701.029710,-74158.044206
2402.319985,2812.782580,-1628.453072,-78448.178995
2402.322557,0.000000,7994.224174,-74924.139704
2402.325129,-8438.347739,2516.700203,-79061.055394
2402.327700,-296.082377,7105.977043,-77528.864398
2402.330272,740.205942,16580.613101,-76609.549800
2402.332844,-592.164754,14211.954086,-81206.122788
2402.335416,-3552.988522,12731.542202,-80286.808190
2402.337987,-10955.047942,6661.853478,-73085.510509
2402.340559,3108.864956,-3997.112087,-77835.302597
2402.343131,-11251.130318,888.247130,-77069.207099
2402.345703,10510.924376,9178.553681,-75077.358804
2402.348274,-6069.688724,2960.823768,-78601.398095
2402.350846,-7846.182985,10955.047942,-64045.583633
2402.353418,-3404.947333,-5181.441594,-72166.195912
2402.355990,-2664.741391,-2812.782580,-71093.662214
2402.358561,5033.400406,-148.041188,-75383.797003
2402.361133,7402.059420,-9622.677246,-81512.560987
2402.363705,-15988.448347,2812.782580,-72012.976812
2402.366276,-6661.853478,-4145.153275,-77222.426198
2402.368848,-1480.411884,-888.247130,-75843.454302
2402.371420,1776.494261,2960.823768,-76456.330700
2402.373992,2220.617826,-2072.576638,-77835.302597
2402.376563,-3849.070898,2220.617826,-71553.319513
2402.379135,-6661.853478,-2960.823768,-68335.718422
2402.381707,3552.988522,7698.141797,-66190.651027
2402.384279,-2220.617826,10658.965565,-69714.690318
2402.386850,6069.688724,-2516.700203,-76456.330700
2402.389422,-5329.482782,1480.411884,-67416.403824
2402.391994,-14952.160028,-6809.894666,-72779.072310
2402.394564,8586.388927,-16728.654289,-86722.010374
2402.397135,-10510.924376,-7254.018232,-79827.150892
2402.399706,-592.164754,-1480.411884,-74311.263306
2402.402276,8438.347739,-1480.411884,-78294.959896
2402.404847,-14359.995275,10362.883188,-72779.072310
2402.407418,4293.194464,1776.494261,-80440.027290
2402.409988,-11991.336260,148.041188,-78907.836294
2402.412559,-3404.947333,1332.370696,-72166.195912
2402.415130,-4441.235652,-6957.935855,-83657.628382
2402.417700,1332.370696,4737.318029,-79367.493593
2402.420271,-6365.771101,20873.807564,-74158.044206
2402.422842,-8142.265362,5477.523971,-81818.999186
2402.425412,-6217.729913,13619.789333,-72012.976812
2402.427983,8142.265362,9030.512492,-74770.920605
2402.430554,-1480.411884,4145.153275,-76762.768900
2402.433124,-1332.370696,6069.688724,-74924.139704
2402.435695,-7105.977043,2516.700203,-75077.358804
2402.438265,-6957.935855,5329.482782,-74617.701505
2402.440836,-1924.535449,4737.318029,-77528.864398
2402.443407,888.247130,9326.594869,-82891.532884
2402.445977,-148.041188,5477.523971,-75996.673402
2402.448548,-7254.018232,296.082377,-75843.454302
2402.451119,-3256.906145,4441.235652,-78448.178995
2402.453689,-1776.494261,11399.171507,-76303.111601
2402.456260,888.247130,15100.201217,-77222.426198
2402.458831,3256.906145,22502.260637,-73851.606007
2402.461401,-10658.965565,9326.594869,-74617.701505
2402.463972,-6069.688724,1776.494261,-73851.606007
2402.466543,4293.194464,6661.853478,-71859.757712
2402.469113,-6069.688724,-3404.947333,-80746.465489
2402.471684,5181.441594,6217.729913,-77069.207099
2402.474255,-13619.789333,-2516.700203,-79673.931792
2402.476825,-5773.606348,4145.153275,-70480.785816
2402.479396,-740.205942,-4145.153275,-79061.055394
2402.481967,-592.164754,-2072.576638,-72166.195912
2402.484537,3552.988522,-1776.494261,-72319.415011
2402.487108,2664.741391,-7402.059420,-79980.369991
2402.489679,-13323.706956,2812.782580,-70327.566716
2402.492249,-10214.842000,-1332.370696,-75383.797003
2402.494820,4589.276840,2368.659014,-75537.016103
2402.497349,1776.494261,4441.235652,-75077.358804
2402.499878,-1628.453072,-1332.370696,-77069.207099
2402.502407,-4293.194464,-1480.411884,-72779.072310
2402.504936,-6217.729913,2072.576638,-73238.729609
2402.507465,296.082377,7105.977043,-76609.549800
2402.509994,-4293.194464,148.041188,-77222.426198
2402.512523,-296.082377,-3404.947333,-75077.358804
2402.515052,-7402.059420,1776.494261,-71859.757712
2402.517581,-2516.700203,-13027.624579,-83504.409282
2402.520110,-5921.647536,-7254.018232,-76762.768900
2402.522639,-3701.029710,-1332.370696,-72166.195912
2402.525169,6217.729913,-4145.153275,-79520.712692
2402.527698,-7994.224174,5033.400406,-74158.044206
2402.530227,1332.370696,6217.729913,-76762.768900
2402.532756,-12583.501014,1184.329507,-77069.207099
2402.535285,-2072.576638,-4293.194464,-76609.549800
2402.537814,4589.276840,9326.594869,-70480.785816
2402.540343,-1332.370696,7698.141797,-70787.224015
2402.542872,740.205942,14211.954086,-73698.386908
2402.545401,-1776.494261,15692.365970,-73698.386908
2402.547930,-13767.830521,16432.571912,-65730.993728
2402.550459,6661.853478,9326.594869,-73698.386908
2402.552988,3256.906145,7105.977043,-77375.645298
2402.555517,-3552.988522,7254.018232,-77069.207099
2402.558046,-3256.906145,1480.411884,-76303.111601
2402.560575,-6661.853478,10214.842000,-69867.909418
2402.563104,-1184.329507,15840.407159,-68948.594820
2402.565633,3404.947333,7105.977043,-71093.662214
2402.568162,-444.123565,4441.235652,-70634.004916
2402.570691,-740.205942,8438.347739,-68488.937521
2402.573221,-296.082377,5773.606348,-73238.729609
2402.575750,-8734.430116,10955.047942,-72779.072310
2402.578279,7105.977043,15100.201217,-74004.825107
2402.580808,-2812.782580,19097.313304,-78141.740796
2402.583337,-7698.141797,10214.842000,-77988.521696
2402.585866,-2516.700203,5033.400406,-74158.044206
2402.588395,-1628.453072,4885.359217,-73851.606007
2402.590924,2960.823768,888.247130,-76303.111601
2402.593453,4441.235652,13027.624579,-71706.538613
2402.595982,-5773.606348,-2220.617826,-80746.465489
2402.598519,-6217.729913,444.123565,-75383.797003
2402.601056,-11399.171507,592.164754,-71553.319513
2402.603593,1184.329507,-10510.924376,-77528.864398
2402.606130,13767.830521,-1480.411884,-78294.959896
2402.608667,-16580.613101,-2960.823768,-77069.207099
2402.611204,-4145.153275,-1480.411884,-74464.482406
2402.613741,-9622.677246,1628.453072,-72472.634111
2402.616278,1036.288319,-3108.864956,-78601.398095
2402.618815,5773.606348,4293.194464,-74004.825107
2402.621352,-10510.924376,-296.082377,-74158.044206
2402.623889,-592.164754,-888.247130,-71400.100414
2402.626426,-3108.864956,5773.606348,-70940.443115
2402.628963,-2812.782580,1184.329507,-74004.825107
2402.631500,3108.864956,-1628.453072,-77988.521696
2402.634036,1776.494261,2516.700203,-71246.881314
2402.636573,-10066.800811,-9474.636058,-75690.235202
2402.639110,-888.247130,-11843.295072,-78754.617194
2402.641647,-10362.883188,-11399.171507,-76149.892501
2402.644184,6809.894666,-1924.535449,-75383.797003
2402.646721,4145.153275,444.123565,-75843.454302
2402.649258,-10955.047942,5773.606348,-74770.920605
2402.651795,296.082377,8438.347739,-74464.482406
2402.654332,-15544.324782,-5329.482782,-78448.178995
2402.656869,14656.077652,12435.459826,-71859.757712
2402.659406,-5773.606348,-5329.482782,-85189.819378
2402.661943,-888.247130,5477.523971,-74770.920605
2402.664480,-9178.553681,17616.901420,-74770.920605
2402.667017,-8586.388927,9326.594869,-77835.302597
2402.669554,-2516.700203,6513.812290,-78294.959896
2402.672091,3701.029710,7254.018232,-76149.892501
2402.674628,-1480.411884,6069.688724,-74770.920605
2402.677165,-2220.617826,4441.235652,-76762.768900
2402.679708,-10658.965565,5033.400406,-74004.825107
2402.682252,-296.082377,4145.153275,-77682.083497
2402.684795,1184.329507,6809.894666,-79061.055394
2402.687338,-3404.947333,5181.441594,-75383.797003
2402.689882,-592.164754,7254.018232,-71246.881314
2402.692425,-3849.070898,4737.318029,-75843.454302
2402.694968,-3404.947333,11991.336260,-71553.319513
2402.697512,740.205942,16284.530724,-68642.156621
2402.700055,-5033.400406,18801.230927,-73698.386908
2402.702598,-6957.935855,13175.665768,-75077.358804
2402.705142,296.082377,5033.400406,-75537.016103
2402.707685,-8438.347739,7254.018232,-72319.415011
2402.710228,4885.359217,-2664.741391,-77682.083497
2402.712772,2072.576638,6069.688724,-76609.549800
2402.715315,-13767.830521,-9178.553681,-84883.381178
2402.717858,-1184.329507,4441.235652,-74924.139704
2402.720402,-13767.830521,-8290.306550,-79827.150892
2402.722945,6217.729913,-3404.947333,-71859.757712
2402.725488,4293.194464,592.164754,-72625.853210
2402.728032,5329.482782,-4293.194464,-78141.740796
2402.730575,-9622.677246,4145.153275,-69867.909418
2402.733118,-15100.201217,-4737.318029,-73545.167808
2402.735662,4145.153275,-2220.617826,-75843.454302
2402.738205,6069.688724,3552.988522,-71706.538613
2402.740748,-8438.347739,4293.194464,-75537.016103
2402.743292,-740.205942,2072.576638,-72779.072310
2402.745835,-10658.965565,3552.988522,-71859.757712
2402.748378,-3108.864956,1924.535449,-75230.577904
2402.750922,3701.029710,3701.029710,-74004.825107
2402.753465,-5477.523971,-2516.700203,-77988.521696
2402.756008,-2516.700203,-7402.059420,-76303.111601
2402.758552,-11991.336260,-11843.295072,-78141.740796
2402.761095,-9918.759623,-15396.283594,-81972.218286
2402.763638,11251.130318,-2220.617826,-78601.398095
2402.766182,1924.535449,-1184.329507,-77988.521696
2402.768725,-4737.318029,3701.029710,-79520.712692
2402.771268,-9770.718434,8438.347739,-73391.948708
2402.773812,-15100.201217,-3997.112087,-74770.920605
2402.776355,15840.407159,16432.571912,-66956.746525
2402.778898,-10066.800811,6957.935855,-76609.549800
2402.781447,1776.494261,9474.636058,-74464.482406
2402.783995,-7550.100608,16284.530724,-75383.797003
2402.786543,-11251.130318,12287.418637,-73545.167808
2402.789092,-2516.700203,6069.688724,-75996.673402
2402.791640,3701.029710,10214.842000,-76762.768900
2402.794188,-3108.864956,5477.523971,-76915.987999
2402.796737,-1332.370696,4885.359217,-75537.016103
2402.799285,-11251.130318,4145.153275,-75843.454302
2402.801833,1776.494261,444.123565,-77222.426198
2402.804382,-592.164754,6069.688724,-83504.409282
2402.806930,-4293.194464,7550.100608,-74004.825107
2402.809478,-2664.741391,-740.205942,-74158.044206
2402.812026,-3997.112087,6661.853478,-74464.482406
2402.814575,-2812.782580,11991.336260,-76303.111601
2402.817123,5181.441594,15692.365970,-78754.617194
2402.819671,-6365.771101,19541.436869,-73238.729609
2402.822220,-6217.729913,13619.789333,-69714.690318
2402.824768,-2664.741391,5181.441594,-76609.549800
2402.827316,-9622.677246,5033.400406,-73391.948708
2402.829865,7402.059420,2220.617826,-72932.291410
2402.832413,-9030.512492,7698.141797,-72779.072310
2402.834961,6365.771101,3256.906145,-73085.510509
2402.837510,-15396.283594,3404.947333,-71859.757712
2402.840058,-6661.853478,-4293.194464,-72779.072310
2402.842606,4145.153275,1332.370696,-69255.033019
2402.845154,7254.018232,-5181.441594,-76609.549800
2402.847703,-12583.501014,3404.947333,-74464.482406
2402.850251,-1480.411884,-2960.823768,-79520.712692
2402.852799,-13471.748144,-4441.235652,-79061.055394
2402.855348,5921.647536,-3997.112087,-77835.302597
2402.857896,1332.370696,-592.164754,-76456.330700
2402.860444,-888.247130,-1776.494261,-77375.645298
2402.862993,-3256.906145,2664.741391,-74311.263306
2402.865541,-8586.388927,5181.441594,-73391.948708
2402.868089,5477.523971,-5329.482782,-79980.369991
2402.870637,-3404.947333,2960.823768,-73698.386908
2402.873186,2072.576638,-3849.070898,-74158.044206
2402.875734,-10807.006753,-15100.201217,-79520.712692
2402.878282,-9474.636058,-14063.912898,-78294.959896
2402.880831,9918.759623,-444.123565,-72319.415011
2402.883383,5181.441594,-5625.565159,-77835.302597
2402.885936,-5477.523971,10362.883188,-74311.263306
2402.888488,148.041188,14952.160028,-68948.594820
2402.891041,-16728.654289,-5033.400406,-76609.549800
2402.893593,18061.024985,14063.912898,-68182.499322
2402.896146,-3108.864956,-4441.235652,-83197.971083
2402.898699,1184.329507,7105.977043,-78141.740796
2402.901251,-9030.512492,19541.436869,-71553.319513
2402.903804,-11991.336260,3108.864956,-79980.369991
2402.906356,-1776.494261,11843.295072,-72319.415011
2402.908909,4441.235652,11251.130318,-73851.606007
2402.911461,-3849.070898,6217.729913,-77835.302597
2402.914014,1184.329507,3404.947333,-77375.645298
2402.916566,-13175.665768,8290.306550,-67876.061123
2402.919119,-592.164754,2368.659014,-70327.566716
2402.921671,-1628.453072,18061.024985,-63432.707234
2402.924224,740.205942,13915.871710,-67109.965625
2402.926777,1480.411884,3552.988522,-72932.291410
2402.929329,-5329.482782,12583.501014,-66650.308326
2402.931882,-8734.430116,14952.160028,-68488.937521
2402.934434,3997.112087,11695.253884,-80286.808190
2402.936987,-7550.100608,15544.324782,-80440.027290
2402.939539,-3108.864956,12583.501014,-76149.892501
2402.942092,-4293.194464,2960.823768,-79061.055394
2402.944644,-15692.365970,-2072.576638,-77682.083497
2402.947197,14656.077652,4145.153275,-72166.195912
2402.949749,-4293.194464,2220.617826,-72319.415011
2402.952302,-5033.400406,5477.523971,-64198.802732
2402.954855,-5625.565159,1332.370696,-69408.252119
2402.957407,-5625.565159,-2516.700203,-75230.577904
2402.959960,592.164754,-3108.864956,-76609.549800
2402.962512,5329.482782,-3552.988522,-78448.178995
2402.965065,-14656.077652,1036.288319,-75690.235202
2402.967617,-3552.988522,-5329.482782,-80593.246390
2402.970170,-11399.171507,-3108.864956,-79520.712692
2402.972722,2812.782580,-3997.112087,-77988.521696
2402.975275,4885.359217,888.247130,-74770.920605
2402.977827,-4737.318029,4293.194464,-72932.291410
2402.980380,-1776.494261,5181.441594,-71706.538613
2402.982933,-6365.771101,1332.370696,-75230.577904
2402.985451,0.000000,6365.771101,-72779.072310
2402.987969,1036.288319,-4885.359217,-76456.330700
2402.990487,-3108.864956,-4885.359217,-73391.948708
2402.993005,-5773.606348,-9918.759623,-79367.493593
2402.995524,-7698.141797,-12139.377449,-78294.959896
2402.998042,3108.864956,-3108.864956,-74311.263306
2403.000560,1628.453072,-3701.029710,-75690.235202
2403.003078,-4885.359217,740.205942,-78907.836294
2403.005596,-15544.324782,7846.182985,-77069.207099
2403.008115,-6809.894666,-888.247130,-76762.768900
2403.010633,9474.636058,2220.617826,-75996.673402
2403.013151,-3256.906145,6809.894666,-72166.195912
2403.015669,3108.864956,14656.077652,-75077.358804
2403.018187,-5033.400406,11991.336260,-77375.645298
2403.020705,-12583.501014,15840.407159,-69408.252119
2403.023224,2812.782580,9326.594869,-73851.606007
2403.025742,2960.823768,6217.729913,-76456.330700
2403.028260,740.205942,12435.459826,-71859.757712
2403.030778,-11399.171507,2960.823768,-77528.864398
2403.033296,-2516.700203,5625.565159,-77222.426198
2403.035815,-5921.647536,5625.565159,-76456.330700
2403.038333,-740.205942,5033.400406,-76149.892501
2403.040851,1628.453072,10214.842000,-74770.920605
2403.043369,-4441.235652,5773.606348,-78141.740796
2403.045887,1184.329507,9178.553681,-76456.330700
2403.048406,-7698.141797,15692.365970,-72472.634111
2403.050924,-3108.864956,15840.407159,-76915.987999
2403.053442,592.164754,17616.901420,-74924.139704
2403.055960,-1184.329507,10214.842000,-75077.358804
2403.058478,-14952.160028,1184.329507,-76456.330700
2403.060997,11843.295072,5181.441594,-68642.156621
2403.063515,-10066.800811,6069.688724,-70634.004916
2403.066033,-2960.823768,-2220.617826,-72779.072310
2403.068551,-3849.070898,1924.535449,-75230.577904
2403.071069,-11103.089130,-4589.276840,-74158.044206
2403.073588,1924.535449,-2220.617826,-71859.757712
2403.076106,9622.677246,-3997.112087,-78601.398095
2403.078624,-7402.059420,-1480.411884,-77069.207099
2403.081142,-8438.347739,2368.659014,-74158.044206
2403.083660,-7254.018232,-3997.112087,-74004.825107
2403.086192,2960.823768,-2960.823768,-74617.701505
2403.088721,592.164754,-592.164754,-73391.948708
2403.091250,-1036.288319,444.123565,-79214.274493
2403.093779,-5625.565159,2072.576638,-78754.617194
2403.096307,-11251.130318,1924.535449,-73391.948708
2403.098836,2072.576638,-1332.370696,-75077.358804
2403.101365,-3701.029710,-592.164754,-75690.235202
2403.103894,740.205942,-5773.606348,-76762.768900
2403.106423,-8734.430116,-8586.388927,-75383.797003
2403.108952,-3997.112087,-7550.100608,-72932.291410
2403.111480,9770.718434,-6661.853478,-74924.139704
2403.114009,-9474.636058,4441.235652,-73545.167808
2403.116538,5329.482782,5181.441594,-81052.903688
2403.119067,-13767.830521,7550.100608,-76456.330700
2403.121596,-8142.265362,-2072.576638,-76762.768900
2403.124125,11991.336260,10214.842000,-78601.398095
2403.126653,4145.153275,7105.977043,-74924.139704
2403.129182,-8734.430116,18801.230927,-71246.881314
2403.131711,-148.041188,7994.224174,-74464.482406
2403.134240,-13027.624579,19985.560434,-64505.240932
2403.136769,4145.153275,7402.059420,-74924.139704
2403.139298,3701.029710,5625.565159,-79367.493593
2403.141826,-2220.617826,14063.912898,-72932.291410
2403.144355,-5773.606348,-1184.329507,-77528.864398
2403.146884,-9178.553681,7254.018232,-76303.111601
2403.149413,-740.205942,2220.617826,-79827.150892
2403.151942,-2220.617826,-148.041188,-79214.274493
2403.154471,-4145.153275,12139.377449,-72472.634111
2403.157000,148.041188,5625.565159,-77222.426198
2403.159528,-2664.741391,10214.842000,-72319.415011
2403.162057,-1480.411884,20429.683999,-71093.662214
2403.164586,-4589.276840,13471.748144,-77222.426198
2403.167115,-3849.070898,14211.954086,-73698.386908
2403.169644,7846.182985,12879.583391,-72012.976812
2403.172173,-13323.706956,-3849.070898,-79214.274493
2403.174701,7994.224174,3108.864956,-73391.948708
2403.177230,-5773.606348,-1332.370696,-75383.797003
2403.179759,-5181.441594,1332.370696,-67416.403824
2403.182288,-444.123565,-1924.535449,-73698.386908
2403.184817,-3701.029710,1332.370696,-70480.785816
2403.187355,-1332.370696,-1480.411884,-71400.100414
2403.189893,6809.894666,-6661.853478,-77375.645298
2403.192431,-11991.336260,3997.112087,-75077.358804
2403.194969,-7994.224174,-1776.494261,-76456.330700
2403.197507,-2220.617826,-7402.059420,-79673.931792
2403.200045,-2516.700203,-1036.288319,-74004.825107
2403.202584,2960.823768,-2072.576638,-80133.589091
2403.205122,-3108.864956,3108.864956,-77988.521696
2403.207660,-9326.594869,5181.441594,-73545.167808
2403.210198,-3701.029710,740.205942,-72779.072310
2403.212736,-5477.523971,-1036.288319,-76762.768900
2403.215274,5625.565159,-4885.359217,-75230.577904
2403.217812,-7994.224174,-888.247130,-71246.881314
2403.220350,-9918.759623,-14211.954086,-78141.740796
2403.222889,5477.523971,-2220.617826,-73085.510509
2403.225427,-5033.400406,-3404.947333,-73851.606007
2403.227965,-740.205942,3108.864956,-75230.577904
2403.230503,-3404.947333,13767.830521,-70787.224015
2403.233041,-11251.130318,6069.688724,-74617.701505
2403.235579,6069.688724,10510.924376,-71706.538613
2403.238117,2516.700203,9326.594869,-71859.757712
2403.240655,-1628.453072,9622.677246,-72932.291410
2403.243194,-2664.741391,17764.942608,-75077.358804
2403.245732,-13323.706956,15840.407159,-72932.291410
2403.248270,-2664.741391,3256.906145,-75690.235202
2403.250808,5921.647536,7846.182985,-73851.606007
2403.253346,-5477.523971,5033.400406,-78141.740796
2403.255884,1480.411884,7550.100608,-76762.768900
2403.258422,-13767.830521,7105.977043,-72779.072310
2403.260960,-1184.329507,3552.988522,-71246.881314
2403.263499,-1184.329507,9622.677246,-70021.128517
2403.266037,-4293.194464,9030.512492,-72932.291410
2403.268575,8882.471304,8290.306550,-77835.302597
2403.271113,-3404.947333,8882.471304,-75690.235202
2403.273651,-2664.741391,22354.219448,-69255.033019
2403.276189,-6809.894666,13323.706956,-73391.948708
2403.278727,-3701.029710,16728.654289,-72166.195912
2403.281265,11547.212695,11843.295072,-72779.072310
2403.283804,-14804.118840,3701.029710,-71859.757712
2403.286342,12583.501014,5477.523971,-68642.156621
2403.288887,-8438.347739,296.082377,-71553.319513
2403.291432,-8734.430116,-1628.453072,-70480.785816
2403.293978,1332.370696,-2072.576638,-74004.825107
2403.296523,-9030.512492,-148.041188,-71706.538613
2403.299068,-3256.906145,-2220.617826,-73851.606007
2403.301614,8290.306550,-6513.812290,-79827.150892
2403.304159,-11843.295072,6217.729913,-72625.853210
2403.306704,-4441.235652,-1184.329507,-77375.645298
2403.309250,-5329.482782,-3849.070898,-74004.825107
2403.311795,2516.700203,-148.041188,-72012.976812
2403.314341,3256.906145,-4737.318029,-80286.808190
2403.316886,-1332.370696,3997.112087,-74924.139704
2403.319431,-6069.688724,7402.059420,-66343.870127
2403.321977,-3997.112087,2368.659014,-67722.842023
2403.324522,-3404.947333,444.123565,-76149.892501
2403.327067,5477.523971,-1480.411884,-74158.044206
2403.329613,-6069.688724,148.041188,-68795.375720
2403.332158,-8438.347739,-14952.160028,-76762.768900
2403.334703,4441.235652,-5921.647536,-72625.853210
2403.337249,-8438.347739,4885.359217,-71093.662214
2403.339794,8290.306550,2960.823768,-78907.836294
2403.342339,-11251.130318,9918.759623,-73085.510509
2403.344885,-8438.347739,6513.812290,-70327.566716
2403.347430,6809.894666,12731.542202,-68795.375720
2403.349976,-1924.535449,6069.688724,-76762.768900
2403.352521,0.000000,12731.542202,-71706.538613
2403.355066,-3849.070898,12435.459826,-75383.797003
2403.357612,-13027.624579,13027.624579,-73085.510509
2403.360157,2516.700203,5773.606348,-79061.055394
2403.362702,5181.441594,8438.347739,-77069.207099
2403.365248,-5181.441594,3849.070898,-76456.330700
2403.367793,2812.782580,3849.070898,-74311.263306
2403.370338,-8142.265362,9178.553681,-74770.920605
2403.372884,-4145.153275,1776.494261,-79520.712692
2403.375429,-888.247130,-3256.906145,-83504.409282
2403.377974,-3849.070898,11695.253884,-76149.892501
2403.380520,4293.194464,7254.018232,-76915.987999
2403.383065,-4737.318029,10214.842000,-76303.111601
2403.385610,-6661.853478,20725.766376,-69561.471218
2403.388156,-7254.018232,11251.130318,-73085.510509
2403.390707,148.041188,12435.459826,-70787.224015
2403.393259,7402.059420,14359.995275,-69714.690318
2403.395811,-9178.553681,2516.700203,-75843.454302
2403.398362,2516.700203,5625.565159,-73238.729609
2403.400914,-16728.654289,-8734.430116,-78907.836294
2403.403466,-1480.411884,2664.741391,-70480.785816
2403.406017,740.205942,-4737.318029,-76303.111601
2403.408569,1184.329507,-3256.906145,-73391.948708
2403.411121,-444.123565,2072.576638,-72319.415011
2403.413672,7402.059420,-740.205942,-74464.482406
2403.416224,-13471.748144,2812.782580,-72472.634111
2403.418775,-12435.459826,1184.329507,-70634.004916
2403.421327,4589.276840,-6069.688724,-77222.426198
2403.423879,-1036.288319,-1776.494261,-74464.482406
2403.426430,296.082377,2960.823768,-72166.195912
2403.428982,-740.205942,14656.077652,-67109.965625
2403.431534,-8882.471304,444.123565,-74464.482406
2403.434085,1036.288319,-7105.977043,-79061.055394
2403.436637,-4145.153275,6069.688724,-70634.004916
2403.439188,0.000000,-13767.830521,-67569.622924
2403.441740,1480.411884,-14063.912898,-72012.976812
2403.444292,-5181.441594,-3404.947333,-71093.662214
2403.446843,-1332.370696,-592.164754,-75537.016103
2403.449395,-1628.453072,-2368.659014,-79827.150892
2403.451947,-6957.935855,15840.407159,-66956.746525
2403.454498,-7698.141797,-296.082377,-72012.976812
2403.457050,3552.988522,19245.354492,-67416.403824
2403.459601,-888.247130,5033.400406,-80899.684589
2403.462153,1184.329507,8586.388927,-74158.044206
2403.464705,-7254.018232,15988.448347,-75383.797003
2403.467256,-7846.182985,7846.182985,-77069.207099
2403.469808,-7698.141797,5329.482782,-79827.150892
2403.472360,7846.182985,8290.306550,-76609.549800
2403.474911,-2516.700203,6217.729913,-76915.987999
2403.477463,-5921.647536,3552.988522,-76609.549800
2403.480015,-4885.359217,8290.306550,-74004.825107
2403.482566,-2220.617826,2664.741391,-77835.302597
2403.485118,-3849.070898,-592.164754,-79673.931792
2403.487669,1184.329507,8882.471304,-73851.606007
2403.490221,0.000000,10066.800811,-76915.987999
2403.492777,-740.205942,8882.471304,-80286.808190
2403.495333,-6809.894666,18357.107362,-73698.386908
2403.497889,-13767.830521,13175.665768,-74004.825107
2403.500445,9918.759623,6661.853478,-77682.083497
2403.503001,-3997.112087,17024.736666,-70634.004916
2403.505557,1036.288319,2960.823768,-76609.549800
2403.508113,4589.276840,4589.276840,-75230.577904
2403.510669,-15988.448347,-14211.954086,-79520.712692
2403.513225,-10510.924376,-2220.617826,-72472.634111
2403.515781,-2664.741391,-5921.647536,-78601.398095
2403.518337,-2516.700203,-5921.647536,-78294.959896
2403.520893,6365.771101,-1332.370696,-74004.825107
2403.523449,-6069.688724,-1480.411884,-73698.386908
2403.526005,-4737.318029,-296.082377,-72625.853210
2403.528561,-9474.636058,5181.441594,-71553.319513
2403.531117,-3552.988522,-4885.359217,-78448.178995
2403.533673,4293.194464,-5921.647536,-73545.167808
2403.536229,-4441.235652,3256.906145,-71246.881314
2403.538785,296.082377,14211.954086,-70021.128517
2403.541341,-4441.235652,888.247130,-76303.111601
2403.543897,-6809.894666,-3404.947333,-76609.549800
2403.546453,148.041188,-148.041188,-75690.235202
2403.549009,-8438.347739,-7698.141797,-69867.909418
2403.551565,3108.864956,-10214.842000,-74924.139704
2403.554121,3552.988522,-5921.647536,-74617.701505
2403.556677,-12583.501014,3404.947333,-71400.100414
2403.559233,9918.759623,-444.123565,-77835.302597
2403.561789,-11991.336260,7846.182985,-72932.291410
2403.564345,-2516.700203,4737.318029,-74617.701505
2403.566901,6809.894666,12879.583391,-69408.252119
2403.569457,-7698.141797,9030.512492,-68795.375720
2403.572013,6217.729913,12731.542202,-70634.004916
2403.574569,-4737.318029,14804.118840,-74770.920605
2403.577125,-10214.842000,15988.448347,-71093.662214
2403.579681,-1036.288319,4885.359217,-76609.549800
2403.582237,2664.741391,5773.606348,-73698.386908
2403.584793,-296.082377,11991.336260,-72012.976812
2403.587349,-5033.400406,4441.235652,-73545.167808
2403.589905,-4441.235652,9326.594869,-73391.948708
2403.592461,888.247130,10066.800811,-72472.634111
2403.595021,-5181.441594,740.205942,-76149.892501
2403.597581,-1776.494261,6809.894666,-74158.044206
2403.600141,1332.370696,14359.995275,-72779.072310
2403.602701,-6069.688724,14656.077652,-77069.207099
2403.605261,-8734.430116,14063.912898,-76149.892501
2403.607821,-7698.141797,14211.954086,-75383.797003
2403.610381,10214.842000,11695.253884,-79061.055394
2403.612941,-9622.677246,3997.112087,-77375.645298
2403.615501,4145.153275,4441.235652,-73238.729609
2403.618061,-12139.377449,-3849.070898,-76762.768900
2403.620621,-1628.453072,-3701.029710,-69408.252119
2403.623181,-9178.553681,-4293.194464,-75996.673402
2403.625741,4145.153275,1184.329507,-73238.729609
2403.628301,-2516.700203,444.123565,-70480.785816
2403.630861,4589.276840,-3849.070898,-76456.330700
2403.633421,-6957.935855,6365.771101,-72932.291410
2403.635981,-8882.471304,-3256.906145,-80593.246390
2403.638541,-5773.606348,-444.123565,-74617.701505
2403.641101,1332.370696,-2072.576638,-73391.948708
2403.643661,296.082377,2072.576638,-75077.358804
2403.646221,-1776.494261,444.123565,-76915.987999
2403.648781,-7402.059420,-1184.329507,-79827.150892
2403.651341,-2664.741391,3849.070898,-73238.729609
2403.653901,-5181.441594,-1036.288319,-70021.128517
2403.656461,-4589.276840,-10510.924376,-76762.768900
2403.659021,3404.947333,-16580.613101,-80746.465489
2403.661581,-2220.617826,-3997.112087,-73545.167808
2403.664141,-5329.482782,-6809.894666,-74311.263306
2403.666701,-7402.059420,-592.164754,-75077.358804
2403.669260,0.000000,14508.036463,-72779.072310
2403.671820,-9622.677246,888.247130,-78601.398095
2403.674380,6217.729913,18357.107362,-67569.622924
2403.676940,-5033.400406,4441.235652,-77988.521696
2403.679500,592.164754,5921.647536,-76149.892501
2403.682060,-7402.059420,15988.448347,-77682.083497
2403.684620,-4737.318029,6365.771101,-80593.246390
2403.687180,-7698.141797,8142.265362,-72472.634111
2403.689740,296.082377,6513.812290,-74617.701505
2403.692300,592.164754,4589.276840,-77682.083497
2403.694860,-2368.659014,8438.347739,-78141.740796
2403.697423,-7105.977043,10510.924376,-73238.729609
2403.699985,1036.288319,3552.988522,-72166.195912
2403.702547,-4737.318029,0.000000,-79061.055394
2403.705109,2960.823768,6513.812290,-77528.864398
2403.707672,592.164754,14804.118840,-72779.072310
2403.710234,-5181.441594,13027.624579,-73238.729609
2403.712796,-3256.906145,15248.242405,-74158.044206
2403.715359,-15840.407159,14063.912898,-76915.987999
2403.717921,15840.407159,9770.718434,-80440.027290
2403.720483,-12139.377449,7698.141797,-73851.606007
2403.723045,5625.565159,4441.235652,-71553.319513
2403.725608,-5477.523971,-7402.059420,-77988.521696
2403.728170,-7254.018232,-3701.029710,-69101.813920
2403.730732,-4145.153275,-4293.194464,-74924.139704
2403.733295,3997.112087,-148.041188,-70021.128517
2403.735857,-7550.100608,-740.205942,-70021.128517
2403.738419,10658.965565,-5033.400406,-79214.274493
2403.740981,-9622.677246,3997.112087,-75996.673402
2403.743544,-4145.153275,-1184.329507,-79061.055394
2403.746106,-6217.729913,-148.041188,-72625.853210
2403.748668,1036.288319,-1036.288319,-73545.167808
2403.751231,2960.823768,-296.082377,-74004.825107
2403.753793,-6809.894666,3256.906145,-71400.100414
2403.756355,-5773.606348,1184.329507,-74617.701505
2403.758917,-3552.988522,-2664.741391,-73238.729609
2403.761480,-3997.112087,-2812.782580,-73698.386908
2403.764042,-3849.070898,-11695.253884,-77069.207099
2403.766604,7698.141797,-9622.677246,-75537.016103
2403.769167,-7550.100608,-7846.182985,-71859.757712
2403.771729,740.205942,-3849.070898,-73085.510509
2403.774291,-5625.565159,3404.947333,-73851.606007
2403.776853,-5329.482782,10510.924376,-74311.263306
2403.779416,-4293.194464,-888.247130,-75843.454302
2403.781978,3997.112087,20429.683999,-63585.926334
2403.784540,444.123565,8438.347739,-74158.044206
2403.787103,-3256.906145,10955.047942,-72932.291410
2403.789665,-3552.988522,16876.695478,-74004.825107
2403.792227,-3997.112087,9474.636058,-75230.577904
2403.794790,-8734.430116,3552.988522,-77375.645298
2403.797352,4293.194464,5773.606348,-75996.673402
2403.799917,-3849.070898,11695.253884,-73851.606007
2403.802481,-4293.194464,2516.700203,-76456.330700
2403.805046,-3404.947333,3701.029710,-74464.482406
2403.807611,-740.205942,9770.718434,-72166.195912
2403.810176,-3997.112087,4441.235652,-76915.987999
2403.812741,6513.812290,6513.812290,-76149.892501
2403.815305,-4293.194464,17616.901420,-70174.347617
2403.817870,-2516.700203,11399.171507,-76149.892501
2403.820435,-8882.471304,15248.242405,-78141.740796
2403.823000,-1332.370696,13471.748144,-77528.864398
2403.825565,5625.565159,15544.324782,-73238.729609
2403.828129,-6513.812290,3997.112087,-75230.577904
2403.830694,6217.729913,4145.153275,-73545.167808
2403.833259,-7402.059420,-13323.706956,-82278.656485
2403.835824,-9030.512492,-7550.100608,-79367.493593
2403.838388,-2368.659014,-6365.771101,-80133.589091
2403.840953,4293.194464,-4441.235652,-77069.207099
2403.843518,1924.535449,-4885.359217,-76303.111601
2403.846083,-2516.700203,148.041188,-72472.634111
2403.848648,-7698.141797,3552.988522,-74158.044206
2403.851212,-7402.059420,-2220.617826,-76609.549800
2403.853777,-888.247130,-3701.029710,-75383.797003
2403.856342,-740.205942,2220.617826,-71553.319513
2403.858907,1184.329507,3404.947333,-74004.825107
2403.861472,-5033.400406,7402.059420,-73545.167808
2403.864036,-5921.647536,444.123565,-73238.729609
2403.866601,-2812.782580,-5477.523971,-72319.415011
2403.869166,-2516.700203,-5033.400406,-73698.386908
2403.871731,7550.100608,-9178.553681,-78141.740796
2403.874296,-3108.864956,-10214.842000,-76149.892501
2403.876860,-4589.276840,-2812.782580,-73851.606007
2403.879425,-9622.677246,-1628.453072,-72932.291410
2403.881990,-3552.988522,13323.706956,-70787.224015
2403.884555,-7846.182985,3108.864956,-75843.454302
2403.887120,6217.729913,22206.178260,-65424.555529
2403.889684,148.041188,6513.812290,-77835.302597
2403.892249,-2220.617826,7994.224174,-75230.577904
2403.894814,-9030.512492,14508.036463,-78907.836294
2403.897379,-3701.029710,8142.265362,-79980.369991
2403.899943,-6957.935855,5625.565159,-76456.330700
2403.902510,-2516.700203,7698.141797,-74004.825107
2403.905077,-1924.535449,7994.224174,-76149.892501
2403.907644,-1184.329507,3404.947333,-80746.465489
2403.910211,-9030.512492,4293.194464,-78294.959896
2403.912777,4589.276840,4145.153275,-76609.549800
2403.915344,-8438.347739,3552.988522,-77835.302597
2403.917911,2368.659014,5329.482782,-80746.465489
2403.920478,3552.988522,17912.983796,-73085.510509
2403.923044,-13323.706956,14063.912898,-72932.291410
2403.925611,-7105.977043,13323.706956,-75383.797003
2403.928178,-3108.864956,14508.036463,-75077.358804
2403.930745,3404.947333,15248.242405,-74158.044206
2403.933312,2812.782580,6217.729913,-74158.044206
2403.935878,-2072.576638,6661.853478,-74158.044206
2403.938445,-3997.112087,-12139.377449,-78754.617194
2403.941012,-5477.523971,-5625.565159,-75537.016103
2403.943579,-13915.871710,-11547.212695,-83044.751983
2403.946145,5921.647536,-8882.471304,-79980.369991
2403.948712,-4293.194464,-2072.576638,-74924.139704
2403.951279,3404.947333,296.082377,-76456.330700
2403.953846,-8882.471304,3701.029710,-75383.797003
2403.956413,-7402.059420,-2664.741391,-75996.673402
2403.958979,592.164754,-2368.659014,-73698.386908
2403.961546,2072.576638,-1184.329507,-71093.662214
2403.964113,0.000000,5625.565159,-71400.100414
2403.966680,-4441.235652,9178.553681,-70021.128517
2403.969246,-10955.047942,1776.494261,-69714.690318
2403.971813,-1036.288319,-6809.894666,-73238.729609
2403.974380,-1776.494261,-7698.141797,-74924.139704
2403.976947,1036.288319,-8142.265362,-77988.521696
2403.979513,2220.617826,-12287.418637,-79520.712692
2403.982080,-14656.077652,-1924.535449,-73851.606007
2403.984648,-1184.329507,-4145.153275,-79827.150892
2403.987216,-7994.224174,6661.853478,-76762.768900
2403.989784,-2072.576638,1184.329507,-79367.493593
2403.992351,6513.812290,19541.436869,-66650.308326
2403.994919,-4589.276840,10807.006753,-71400.100414
2403.997487,1480.411884,11547.212695,-72779.072310
2404.000055,-6809.894666,17320.819043,-73698.386908
2404.002623,-3552.988522,13027.624579,-74617.701505
2404.005190,1184.329507,5181.441594,-76303.111601
2404.007758,888.247130,5773.606348,-73545.167808
2404.010326,-1332.370696,9326.594869,-73085.510509
2404.012894,-2072.576638,7698.141797,-74158.044206
2404.015462,-4441.235652,15396.283594,-73545.167808
2404.018030,-1184.329507,1776.494261,-78294.959896
2404.020597,-6957.935855,-2960.823768,-80899.684589
2404.023165,2516.700203,16580.613101,-74924.139704
2404.025733,-3108.864956,13915.871710,-76915.987999
2404.028301,-14063.912898,13027.624579,-72012.976812
2404.030869,-888.247130,14211.954086,-70787.224015
2404.033436,3404.947333,12435.459826,-75077.358804
2404.036004,-5477.523971,11399.171507,-75690.235202
2404.038572,5921.647536,10362.883188,-69408.252119
2404.041140,-13619.789333,1036.288319,-75537.016103
2404.043708,-4885.359217,-6957.935855,-71093.662214
2404.046275,-148.041188,-10510.924376,-75690.235202
2404.048843,-10807.006753,-2368.659014,-73238.729609
2404.051411,3404.947333,-4441.235652,-76762.768900
2404.053979,9178.553681,-5625.565159,-77222.426198
2404.056547,-10066.800811,6661.853478,-69714.690318
2404.059114,-888.247130,740.205942,-77988.521696
2404.061682,-9770.718434,-3256.906145,-79214.274493
2404.064250,1776.494261,-1776.494261,-75843.454302
2404.066818,-1480.411884,-2220.617826,-74004.825107
2404.069386,-3701.029710,-4441.235652,-81052.903688
2404.071953,-1480.411884,3849.070898,-77069.207099
2404.074521,-9918.759623,-592.164754,-74464.482406
2404.077089,-4441.235652,-9770.718434,-74770.920605
2404.079657,3997.112087,-12435.459826,-72932.291410
2404.082225,7994.224174,-5181.441594,-72319.415011
2404.084792,1628.453072,-9474.636058,-75537.016103
2404.087333,-13323.706956,4293.194464,-71246.881314
2404.089867,-2960.823768,11399.171507,-69561.471218
2404.092401,-6513.812290,-3701.029710,-78754.617194
2404.094935,8290.306550,15544.324782,-75230.577904
2404.097469,-3997.112087,148.041188,-86568.791274
2404.100003,-1184.329507,7105.977043,-77375.645298
2404.102537,-10955.047942,15544.324782,-74158.044206
2404.105070,740.205942,2664.741391,-81665.780087
2404.107604,-9326.594869,16728.654289,-77375.645298
2404.110138,1332.370696,8142.265362,-74617.701505
2404.112672,-1776.494261,7698.141797,-71246.881314
2404.115206,0.000000,9030.512492,-72012.976812
2404.117740,-6661.853478,7402.059420,-76149.892501
2404.120274,-3701.029710,1184.329507,-77222.426198
2404.122808,-4293.194464,5921.647536,-72779.072310
2404.125342,1480.411884,8734.430116,-75383.797003
2404.127876,-1036.288319,14211.954086,-78601.398095
2404.130410,-1776.494261,14508.036463,-80746.465489
2404.132944,-17024.736666,17320.819043,-72472.634111
2404.135478,4737.318029,12435.459826,-74924.139704
2404.138012,-2516.700203,12435.459826,-72625.853210
2404.140546,-2220.617826,7994.224174,-74004.825107
2404.143080,5921.647536,8586.388927,-75537.016103
2404.145614,-7402.059420,-12731.542202,-77222.426198
2404.148148,-10362.883188,-6957.935855,-73698.386908
2404.150682,-5181.441594,-6661.853478,-75230.577904
2404.153216,-1628.453072,-10214.842000,-80899.684589
2404.155750,3256.906145,-1776.494261,-77375.645298
2404.158284,-4589.276840,3701.029710,-72625.853210
2404.160818,-8882.471304,0.000000,-76149.892501
2404.163352,-2072.576638,-1776.494261,-74311.263306
2404.165886,-6217.729913,-1332.370696,-76915.987999
2404.168420,2220.617826,-2960.823768,-79214.274493
2404.170954,2812.782580,-148.041188,-76609.549800
2404.173488,-6217.729913,7846.182985,-69714.690318
2404.176022,-5921.647536,-1628.453072,-75996.673402
2404.178556,-6365.771101,-10955.047942,-77222.426198
2404.181090,-1332.370696,-4145.153275,-68029.280222
2404.183623,8586.388927,-8290.306550,-69408.252119
2404.186157,-1332.370696,-6365.771101,-72012.976812
2404.188699,-14211.954086,-592.164754,-72932.291410
2404.191240,-6217.729913,10510.924376,-68948.594820
2404.193781,-11399.171507,888.247130,-75077.358804
2404.196323,14952.160028,13323.706956,-72472.634111
2404.198864,-8734.430116,5625.565159,-82278.656485
2404.201405,4293.194464,9030.512492,-80593.246390
2404.203946,-12879.583391,15100.201217,-73238.729609
2404.206488,-5033.400406,3997.112087,-79827.150892
2404.209029,-2812.782580,14063.912898,-73085.510509
2404.211570,444.123565,9918.759623,-75537.016103
2404.214111,-8142.265362,8734.430116,-72932.291410
2404.216653,2812.782580,5773.606348,-70327.566716
2404.219194,-8290.306550,9770.718434,-68029.280222
2404.221735,444.123565,7105.977043,-71553.319513
2404.224277,-4441.235652,7550.100608,-72166.195912
2404.226818,-3256.906145,9622.677246,-75230.577904
2404.229359,2368.659014,15988.448347,-71246.881314
2404.231900,-11547.212695,16728.654289,-73085.510509
2404.234442,-11251.130318,14804.118840,-76303.111601
2404.236983,9030.512492,14508.036463,-75383.797003
2404.239524,-11399.171507,6365.771101,-76609.549800
2404.242065,7402.059420,5773.606348,-72779.072310
2404.244607,-6513.812290,8290.306550,-71859.757712
2404.247148,-3256.906145,-7994.224174,-77835.302597
2404.249689,1776.494261,-8586.388927,-74617.701505
2404.252230,-5329.482782,-592.164754,-69101.813920
2404.254772,-3404.947333,-2220.617826,-72472.634111
2404.257313,5477.523971,-7550.100608,-76762.768900
2404.259854,-7550.100608,7698.141797,-73085.510509
2404.262396,-6365.771101,740.205942,-77835.302597
2404.264937,-7105.977043,-8142.265362,-77988.521696
2404.267478,-1332.370696,-3701.029710,-77375.645298
2404.270019,592.164754,-7402.059420,-82891.532884
2404.272561,-2220.617826,148.041188,-81512.560987
2404.275102,-2516.700203,8142.265362,-69714.690318
2404.277643,-5625.565159,-5773.606348,-72166.195912
2404.280184,1924.535449,-9770.718434,-72319.415011
2404.282726,10362.883188,-6957.935855,-70327.566716
2404.285267,-592.164754,-7105.977043,-70787.224015
2404.287808,-4885.359217,-5329.482782,-73391.948708
2404.290356,-3404.947333,2220.617826,-76149.892501
2404.292904,-18357.107362,6513.812290,-76149.892501
2404.295451,4885.359217,4885.359217,-78754.617194
2404.297999,8438.347739,7550.100608,-78294.959896
2404.300546,-9030.512492,12583.501014,-70021.128517
2404.303094,296.082377,10955.047942,-73851.606007
2404.305642,-6069.688724,10362.883188,-75537.016103
2404.308189,-3997.112087,18061.024985,-68642.156621
2404.310737,2368.659014,7402.059420,-73851.606007
2404.313285,-3404.947333,8142.265362,-73391.948708
2404.315832,444.123565,10362.883188,-75690.235202
2404.318380,-6513.812290,9918.759623,-72932.291410
2404.320927,-3552.988522,740.205942,-75996.673402
2404.323475,0.000000,1776.494261,-76149.892501
2404.326023,-3404.947333,9770.718434,-77222.426198
2404.328570,1036.288319,14211.954086,-77222.426198
2404.331118,-9918.759623,12435.459826,-78754.617194
2404.333666,-10066.800811,15988.448347,-74464.482406
2404.336213,1776.494261,15248.242405,-74617.701505
2404.338761,-8734.430116,13027.624579,-76609.549800
2404.341308,5033.400406,9178.553681,-74311.263306
2404.343856,-444.123565,10362.883188,-71553.319513
2404.346404,-12287.418637,-17024.736666,-80899.684589
2404.348951,-4441.235652,-7698.141797,-73391.948708
2404.351499,-9030.512492,-8734.430116,-79827.150892
2404.354047,-1036.288319,-7698.141797,-78294.959896
2404.356594,3404.947333,444.123565,-72625.853210
2404.359142,888.247130,2516.700203,-73085.510509
2404.361689,-3849.070898,1480.411884,-77682.083497
2404.364237,-8142.265362,-3849.070898,-79520.712692
2404.366785,-3997.112087,-2960.823768,-75537.016103
2404.369332,4589.276840,-5033.400406,-76609.549800
2404.371880,-4737.318029,4441.235652,-77528.864398
2404.374428,-4885.359217,3256.906145,-75996.673402
2404.376975,-10066.800811,-4293.194464,-76609.549800
2404.379523,-2072.576638,-10362.883188,-73391.948708
2404.382070,5181.441594,-11843.295072,-73545.167808
2404.384618,7105.977043,-7402.059420,-74311.263306
2404.387166,-4737.318029,-4885.359217,-71859.757712
2404.389713,-11843.295072,-2072.576638,-71400.100414
2404.392232,-8438.347739,11547.212695,-68182.499322
2404.394752,-4145.153275,3701.029710,-75537.016103
2404.397271,9178.553681,19985.560434,-67263.184724
2404.399790,-5477.523971,15396.283594,-69867.909418
2404.402309,-1036.288319,11991.336260,-71706.538613
2404.404828,-9326.594869,13915.871710,-71859.757712
2404.407347,-2812.782580,13027.624579,-72166.195912
2404.409866,-2960.823768,7402.059420,-78294.959896
2404.412385,444.123565,8734.430116,-75996.673402
2404.414904,-6365.771101,8734.430116,-72472.634111
2404.417423,-1184.329507,9622.677246,-74158.044206
2404.419942,-2072.576638,148.041188,-77835.302597
2404.422462,0.000000,2664.741391,-77222.426198
2404.424981,-6513.812290,10510.924376,-73545.167808
2404.427500,592.164754,4885.359217,-79214.274493
2404.430019,-5773.606348,12731.542202,-78141.740796
2404.432538,-4589.276840,18061.024985,-76915.987999
2404.435057,-296.082377,11695.253884,-80593.246390
2404.437576,-12731.542202,12879.583391,-76915.987999
2404.440095,7698.141797,6513.812290,-74004.825107
2404.442614,-5181.441594,4293.194464,-77222.426198
2404.445133,-4145.153275,-14656.077652,-83657.628382
2404.447652,-4589.276840,-7402.059420,-75996.673402
2404.450172,-9030.512492,-10807.006753,-79520.712692
2404.452691,3997.112087,-8142.265362,-79367.493593
2404.455210,-740.205942,296.082377,-75690.235202
2404.457729,-740.205942,2516.700203,-75996.673402
2404.460248,-5477.523971,-148.041188,-74770.920605
2404.462767,-9474.636058,1480.411884,-73698.386908
2404.465286,-3404.947333,-4145.153275,-80440.027290
2404.467805,1184.329507,-296.082377,-75077.358804
2404.470324,-8586.388927,4885.359217,-78754.617194
2404.472843,-2516.700203,-1036.288319,-79673.931792
2404.475362,-14063.912898,-3552.988522,-75537.016103
2404.477882,-3701.029710,-9770.718434,-77835.302597
2404.480401,7846.182985,-13175.665768,-78601.398095
2404.482920,2516.700203,-9474.636058,-76609.549800
2404.485439,-12139.377449,-8438.347739,-76609.549800
2404.487958,-1332.370696,-6217.729913,-81359.341888
2404.490477,-13027.624579,9178.553681,-76149.892501
2404.493007,-1628.453072,1776.494261,-79673.931792
2404.495538,4589.276840,18061.024985,-70787.224015
2404.498068,-3256.906145,13471.748144,-72932.291410
2404.500598,-2960.823768,11843.295072,-75077.358804
2404.503128,-5181.441594,7698.141797,-75996.673402
2404.505658,-1776.494261,17172.777854,-68642.156621
2404.508189,-3701.029710,5329.482782,-75383.797003
2404.510719,2812.782580,7550.100608,-75383.797003
2404.513249,-2516.700203,10955.047942,-72625.853210
2404.515779,-7402.059420,3256.906145,-77835.302597
2404.518310,740.205942,148.041188,-76303.111601
2404.520840,-888.247130,6513.812290,-73085.510509
2404.523370,-4737.318029,10066.800811,-78754.617194
2404.525900,2960.823768,12435.459826,-78448.178995
2404.528430,-11399.171507,19097.313304,-71706.538613
2404.530961,-9622.677246,16728.654289,-70480.785816
2404.533491,13767.830521,16728.654289,-76303.111601
2404.536021,-5329.482782,10658.965565,-76303.111601
2404.538551,8142.265362,6365.771101,-76303.111601
2404.541082,-10807.006753,148.041188,-73851.606007
2404.543612,-2072.576638,-8586.388927,-70940.443115
2404.546142,-7402.059420,-10807.006753,-76456.330700
2404.548672,3108.864956,-4441.235652,-79061.055394
2404.551203,-3552.988522,-3256.906145,-75996.673402
2404.553733,3849.070898,-3849.070898,-75537.016103
2404.556263,-5625.565159,6365.771101,-72779.072310
2404.558793,740.205942,1332.370696,-76609.549800
2404.561323,-11399.171507,-1628.453072,-75996.673402
2404.563854,1332.370696,-9030.512492,-75383.797003
2404.566384,1628.453072,4293.194464,-70634.004916
2404.568914,-2960.823768,6957.935855,-72779.072310
2404.571444,-6809.894666,-3849.070898,-76149.892501
2404.573975,-12139.377449,-5477.523971,-73698.386908
2404.576505,8882.471304,-5773.606348,-75996.673402
2404.579035,2220.617826,-11695.253884,-75843.454302
2404.581565,-444.123565,-9178.553681,-74004.825107
2404.584096,-8142.265362,-3404.947333,-74617.701505
2404.586626,-6957.935855,6957.935855,-72779.072310
2404.589156,-11547.212695,5181.441594,-72319.415011
2404.591686,19689.478057,21021.848753,-68795.375720
2404.594226,-7105.977043,7994.224174,-81972.218286
2404.596766,2072.576638,13175.665768,-74158.044206
2404.599306,-13323.706956,13471.748144,-73698.386908
2404.601846,-3108.864956,6365.771101,-76762.768900
2404.604386,-3404.947333,10362.883188,-74004.825107
2404.606926,-2072.576638,7254.018232,-76915.987999
2404.609466,-1332.370696,8734.430116,-77069.207099
2404.612005,-2072.576638,7550.100608,-76456.330700
2404.614545,-10510.924376,-148.041188,-77528.864398
2404.617085,2960.823768,-592.164754,-78907.836294
2404.619625,-740.205942,9326.594869,-78754.617194
2404.622165,-4589.276840,12731.542202,-77835.302597
2404.624705,-6217.729913,13915.871710,-72779.072310
2404.627245,-4737.318029,12731.542202,-74924.139704
2404.629785,1924.535449,17172.777854,-75996.673402
2404.632325,-7994.224174,13619.789333,-77222.426198
2404.634865,5477.523971,11695.253884,-71859.757712
2404.637405,-5329.482782,9622.677246,-70787.224015
2404.639944,-3997.112087,-7550.100608,-67569.622924
2404.642484,-1628.453072,-7402.059420,-71553.319513
2404.645024,-2664.741391,-2368.659014,-72625.853210
2404.647564,-5625.565159,740.205942,-72472.634111
2404.650104,5921.647536,-3701.029710,-75383.797003
2404.652644,-6217.729913,9030.512492,-72779.072310
2404.655184,-2516.700203,-2516.700203,-81359.341888
2404.657724,-10362.883188,-4441.235652,-78907.836294
2404.660264,-3256.906145,-4293.194464,-79061.055394
2404.662804,1332.370696,-9918.759623,-82278.656485
2404.665343,-3256.906145,-1924.535449,-79980.369991
2404.667883,-9030.512492,-444.123565,-75537.016103
2404.670423,-11251.130318,-8290.306550,-74004.825107
2404.672963,592.164754,-8438.347739,-72166.195912
2404.675503,9918.759623,-8586.388927,-78448.178995
2404.678043,-5181.441594,-8290.306550,-75843.454302
2404.680583,-11695.253884,-6365.771101,-79980.369991
2404.683123,-4885.359217,7550.100608,-74464.482406
2404.685663,-12287.418637,592.164754,-75996.673402
2404.688203,13619.789333,28275.866984,-66037.431928
2404.690742,148.041188,9770.718434,-77375.645298
2404.693282,-3849.070898,15988.448347,-71093.662214
2404.695829,-8882.471304,14804.118840,-73085.510509
2404.698376,-4737.318029,3701.029710,-77222.426198
2404.700923,-4737.318029,6957.935855,-78141.740796
2404.703470,2368.659014,1924.535449,-80746.465489
2404.706017,-7846.182985,8882.471304,-75996.673402
2404.708564,4145.153275,12435.459826,-71706.538613
2404.711111,-6217.729913,3256.906145,-71246.881314
2404.713658,-2960.823768,1776.494261,-78601.398095
2404.716205,3256.906145,13323.706956,-78907.836294
2404.718752,-3997.112087,13915.871710,-77988.521696
2404.721299,-13175.665768,14359.995275,-73391.948708
2404.723846,-2072.576638,13175.665768,-72319.415011
2404.726393,4589.276840,20429.683999,-73545.167808
2404.728940,-5477.523971,10510.924376,-78754.617194
2404.731487,5477.523971,6217.729913,-72625.853210
2404.734034,-11547.212695,444.123565,-71093.662214
2404.736581,2516.700203,-8882.471304,-67416.403824
2404.739128,-10510.924376,-14656.077652,-77835.302597
2404.741675,1628.453072,888.247130,-72166.195912
2404.744222,-5477.523971,148.041188,-74617.701505
2404.746769,2960.823768,-8290.306550,-79673.931792
2404.749316,-2072.576638,10214.842000,-69408.252119
2404.751864,-5773.606348,148.041188,-75230.577904
2404.754411,-10955.047942,-8586.388927,-79827.150892
2404.756958,2960.823768,-11991.336260,-77682.083497
2404.759505,-5921.647536,-296.082377,-74924.139704
2404.762052,2960.823768,1036.288319,-77069.207099
2404.764599,-9030.512492,-592.164754,-75230.577904
2404.767146,-5773.606348,-6513.812290,-75230.577904
2404.769693,5329.482782,-6069.688724,-69867.909418
2404.772240,6217.729913,-6957.935855,-73545.167808
2404.774787,-5329.482782,-9326.594869,-77988.521696
2404.777334,-1776.494261,-4885.359217,-78754.617194
2404.779881,-12731.542202,6365.771101,-74464.482406
2404.782428,-2812.782580,7254.018232,-73391.948708
2404.784975,15396.283594,20429.683999,-71093.662214
2404.787522,-6661.853478,14359.995275,-72012.976812
2404.790069,-2664.741391,17172.777854,-70174.347617
2404.792616,-4885.359217,11991.336260,-72779.072310
2404.795163,-8586.388927,7550.100608,-70021.128517
2404.797716,3404.947333,7402.059420,-76149.892501
2404.800269,-1776.494261,4441.235652,-79214.274493
2404.802822,-3997.112087,9770.718434,-78601.398095
2404.805375,-3108.864956,8882.471304,-76303.111601
2404.807928,-7105.977043,-5033.400406,-84117.285680
2404.810481,5477.523971,3404.947333,-81972.218286
2404.813034,-5033.400406,12139.377449,-77835.302597
2404.815587,-4589.276840,8290.306550,-78141.740796
2404.818140,-5921.647536,7105.977043,-80440.027290
2404.820693,0.000000,15100.201217,-75537.016103
2404.823246,-5921.647536,15248.242405,-77835.302597
2404.825799,3404.947333,13175.665768,-76762.768900
2404.828352,444.123565,7402.059420,-77069.207099
2404.830905,-11547.212695,-19689.478057,-80899.684589
2404.833458,-9474.636058,-6809.894666,-70634.004916
2404.836011,1480.411884,-17172.777854,-84117.285680
2404.838564,-8586.388927,-3404.947333,-75996.673402
2404.841117,3256.906145,3404.947333,-74004.825107
2404.843670,1480.411884,-1184.329507,-76609.549800
2404.846223,-4145.153275,5329.482782,-74004.825107
2404.848776,-2220.617826,2664.741391,-75996.673402
2404.851329,-7994.224174,-8438.347739,-79061.055394
2404.853883,2368.659014,0.000000,-75383.797003
2404.856436,-1184.329507,5329.482782,-74464.482406
2404.858989,-13175.665768,-2812.782580,-76915.987999
2404.861542,-4145.153275,-5477.523971,-74464.482406
2404.864095,-2072.576638,-6513.812290,-74464.482406
2404.866648,4293.194464,-12435.459826,-81818.999186
2404.869201,2220.617826,-9770.718434,-77222.426198
2404.871754,-12583.501014,-7254.018232,-78141.740796
2404.874307,-592.164754,3552.988522,-73545.167808
2404.876860,-14804.118840,1036.288319,-73085.510509
2404.879413,15544.324782,25018.960840,-69561.471218
2404.881966,-296.082377,10362.883188,-82738.313784
2404.884519,-5033.400406,12435.459826,-71859.757712
2404.887072,-7254.018232,13027.624579,-77069.207099
2404.889625,-2516.700203,5773.606348,-76456.330700
2404.892178,-7846.182985,5477.523971,-74617.701505
2404.894731,3552.988522,888.247130,-79214.274493
2404.897284,-3256.906145,9918.759623,-76456.330700
2404.899842,-2368.659014,12139.377449,-74004.825107
2404.902400,-3701.029710,5181.441594,-70634.004916
2404.904958,148.041188,3108.864956,-72779.072310
2404.907516,1332.370696,10362.883188,-77222.426198
2404.910074,-4441.235652,17320.819043,-74770.920605
2404.912633,-10658.965565,15988.448347,-70940.443115
2404.915191,2220.617826,11399.171507,-71859.757712
2404.917749,3108.864956,23834.631332,-69867.909418
2404.920307,1332.370696,15396.283594,-75383.797003
2404.922865,5329.482782,7105.977043,-78601.398095
2404.925423,-18801.230927,-15988.448347,-79061.055394
2404.927981,-2960.823768,-13471.748144,-71859.757712
2404.930539,-2664.741391,-14508.036463,-81359.341888
2404.933097,-4293.194464,-4885.359217,-75230.577904
2404.935655,2812.782580,3256.906145,-74158.044206
2404.938213,2220.617826,-1776.494261,-75843.454302
2404.940771,-3404.947333,5921.647536,-71706.538613
2404.943329,-4589.276840,4441.235652,-73238.729609
2404.945887,-8586.388927,-6661.853478,-78907.836294
2404.948445,8290.306550,-13027.624579,-77988.521696
2404.951003,-6365.771101,5625.565159,-66037.431928
2404.953561,740.205942,5477.523971,-69255.033019
2404.956119,-6217.729913,-9178.553681,-77528.864398
2404.958678,5181.441594,-7254.018232,-75383.797003
2404.961236,5477.523971,-4589.276840,-69867.909418
2404.963794,-9326.594869,-11695.253884,-70327.566716
2404.966352,1776.494261,-5921.647536,-75383.797003
2404.968910,-7550.100608,4441.235652,-69408.252119
2404.971468,-13767.830521,0.000000,-72166.195912
2404.974026,20873.807564,28127.825796,-65271.336430
2404.976584,-9178.553681,11103.089130,-80440.027290
2404.979142,296.082377,12879.583391,-79827.150892
2404.981700,-7994.224174,11251.130318,-79367.493593
2404.984258,-8734.430116,2664.741391,-80746.465489
2404.986816,888.247130,6661.853478,-74770.920605
2404.989374,-4885.359217,3849.070898,-77528.864398
2404.991932,-5477.523971,6513.812290,-75537.016103
2404.994490,2664.741391,7550.100608,-74617.701505
2404.997048,-4737.318029,5625.565159,-73085.510509
2404.999606,148.041188,4293.194464,-75077.358804
2405.002169,-1036.288319,12435.459826,-75383.797003
2405.004731,-7254.018232,17320.819043,-75383.797003
2405.007293,-9918.759623,14804.118840,-72319.415011
2405.009855,5477.523971,10955.047942,-75690.235202
2405.012417,-592.164754,20577.725188,-73238.729609
2405.014980,444.123565,10658.965565,-77528.864398
2405.017542,4441.235652,9770.718434,-74311.263306
2405.020104,-18949.272115,-16876.695478,-77835.302597
2405.022666,888.247130,-10807.006753,-70480.785816
2405.025228,-5033.400406,-18505.148550,-81512.560987
2405.027791,1184.329507,-8290.306550,-79214.274493
2405.030353,-3108.864956,2812.782580,-76762.768900
2405.032915,6661.853478,444.123565,-75230.577904
2405.035477,-2220.617826,5625.565159,-72932.291410
2405.038040,-6365.771101,3108.864956,-73391.948708
2405.040602,-3701.029710,-5033.400406,-73698.386908
2405.043164,2220.617826,-1480.411884,-67876.061123
2405.045726,-740.205942,6217.729913,-68029.280222
2405.048288,-5477.523971,-296.082377,-71553.319513
2405.050851,-6513.812290,-3256.906145,-71859.757712
2405.053413,5477.523971,-6661.853478,-74464.482406
2405.055975,1480.411884,-6661.853478,-75230.577904
2405.058537,-592.164754,-9770.718434,-77835.302597
2405.061099,-4885.359217,-6957.935855,-78907.836294
2405.063662,-13471.748144,-3108.864956,-76456.330700
2405.066224,-1184.329507,4589.276840,-78141.740796
2405.068786,6809.894666,22354.219448,-69255.033019
2405.071348,-2664.741391,21465.972318,-68335.718422
2405.073910,-740.205942,17764.942608,-70327.566716
2405.076473,-4441.235652,13619.789333,-74158.044206
2405.079035,-7698.141797,8734.430116,-70634.004916
2405.081597,3404.947333,4145.153275,-76915.987999
2405.084159,-6957.935855,5329.482782,-75230.577904
2405.086721,444.123565,5773.606348,-74924.139704
2405.089284,-148.041188,14063.912898,-71859.757712
2405.091846,-4737.318029,4293.194464,-76609.549800
2405.094408,5033.400406,4293.194464,-74004.825107
2405.096970,-5033.400406,17172.777854,-72779.072310
2405.099532,-8438.347739,15988.448347,-75230.577904
2405.102095,-7402.059420,9918.759623,-77682.083497
2405.104664,9030.512492,22206.178260,-71859.757712
2405.107229,-13471.748144,8586.388927,-76456.330700
2405.109795,6513.812290,8734.430116,-76303.111601
2405.112361,-12435.459826,-2516.700203,-77988.521696
2405.114926,0.000000,-14211.954086,-72625.853210
2405.117492,-10066.800811,-19689.478057,-78294.959896
2405.120057,1184.329507,-4145.153275,-68948.594820
2405.122623,-6809.894666,-592.164754,-72779.072310
2405.125188,8734.430116,-1036.288319,-78448.178995
2405.127754,-444.123565,10214.842000,-72319.415011
2405.130320,-5773.606348,1628.453072,-75230.577904
2405.132885,-8586.388927,-8142.265362,-74617.701505
2405.135451,7550.100608,-13027.624579,-76762.768900
2405.138016,1036.288319,3997.112087,-74464.482406
2405.140582,2516.700203,5181.441594,-71553.319513
2405.143148,-8586.388927,-4441.235652,-66803.527426
2405.145713,4589.276840,-4885.359217,-66650.308326
2405.148279,11251.130318,-10066.800811,-75537.016103
2405.150844,-6217.729913,-6217.729913,-77682.083497
2405.153410,-6069.688724,-11547.212695,-78601.398095
2405.155975,-8882.471304,2960.823768,-69867.909418
2405.158541,-14063.912898,-1184.329507,-74004.825107
2405.161107,19541.436869,24426.796086,-69408.252119
2405.163672,-3849.070898,19541.436869,-77222.426198
2405.166238,444.123565,13767.830521,-73545.167808
2405.168803,-4293.194464,13175.665768,-71246.881314
2405.171369,-7994.224174,5477.523971,-72166.195912
2405.173935,3404.947333,6217.729913,-75383.797003
2405.176500,-2516.700203,4293.194464,-76762.768900
2405.179066,-1332.370696,6365.771101,-74924.139704
2405.181631,1924.535449,6069.688724,-73085.510509
2405.184197,-5477.523971,5181.441594,-72012.976812
2405.186765,3552.988522,5329.482782,-73391.948708
2405.189332,-3552.988522,15248.242405,-71246.881314
2405.191900,-10362.883188,15544.324782,-72166.195912
2405.194468,-2368.659014,17912.983796,-73238.729609
2405.197036,3108.864956,14359.995275,-78907.836294
2405.199603,-3552.988522,12287.418637,-79827.150892
2405.202171,-444.123565,14508.036463,-70327.566716
2405.204739,-13175.665768,4145.153275,-74464.482406
2405.207307,1480.411884,-10955.047942,-70021.128517
2405.209874,-6809.894666,-20281.642811,-78294.959896
2405.212442,-3552.988522,-7254.018232,-75230.577904
2405.215010,-5477.523971,-1628.453072,-76762.768900
2405.217577,3997.112087,-6217.729913,-80899.684589
2405.220145,3701.029710,7846.182985,-74158.044206
2405.222713,-5625.565159,296.082377,-79673.931792
2405.225281,-8882.471304,-1924.535449,-77375.645298
2405.227848,-740.205942,-8882.471304,-77835.302597
2405.230416,-4293.194464,-2516.700203,-78601.398095
2405.232984,592.164754,4441.235652,-77682.083497
2405.235552,-13619.789333,-4885.359217,-76609.549800
2405.238119,4589.276840,-5181.441594,-74770.920605
2405.240687,12139.377449,-10214.842000,-77682.083497
2405.243255,-13915.871710,-6661.853478,-76609.549800
2405.245823,-4293.194464,-9178.553681,-80133.589091
2405.248390,-1184.329507,-740.205942,-77835.302597
2405.250958,-22946.384202,-3701.029710,-76303.111601
2405.253526,18505.148550,22502.260637,-73238.729609
2405.256094,-3108.864956,15396.283594,-80746.465489
2405.258661,-1332.370696,18357.107362,-77835.302597
2405.261229,-3256.906145,14804.118840,-78141.740796
2405.263797,-5477.523971,1480.411884,-78907.836294
