#time,accel_x,accel_y,accel_z
2259.061533,-4441.235652,4293.194464,-75383.797003
2259.064031,-3701.029710,4885.359217,-75077.358804
2259.066529,444.123565,3552.988522,-75690.235202
2259.069027,-5921.647536,4885.359217,-73851.606007
2259.071525,-2072.576638,3404.947333,-72012.976812
2259.074023,-1332.370696,4441.235652,-73391.948708
2259.076520,-2664.741391,6661.853478,-74464.482406
2259.079018,-1776.494261,2220.617826,-75230.577904
2259.081516,-5033.400406,3701.029710,-74770.920605
2259.084014,-2960.823768,4441.235652,-73085.510509
2259.086512,-1480.411884,1924.535449,-76609.549800
2259.089010,-3552.988522,4441.235652,-76149.892501
2259.091507,-296.082377,2960.823768,-76149.892501
2259.094005,-6513.812290,1332.370696,-76303.111601
2259.096503,8438.347739,4145.153275,-75077.358804
2259.099001,888.247130,6217.729913,-71706.538613
2259.101499,-1628.453072,4293.194464,-77375.645298
2259.103996,-3552.988522,3404.947333,-79980.369991
2259.106494,23538.548956,2368.659014,-82431.875585
2259.108992,-9030.512492,2960.823768,-75537.016103
2259.111490,6069.688724,3108.864956,-76456.330700
2259.113988,-13619.789333,7105.977043,-73238.729609
2259.116486,-5477.523971,0.000000,-75690.235202
2259.118983,8586.388927,3404.947333,-76303.111601
2259.121481,9030.512492,10955.047942,-69867.909418
2259.124009,1332.370696,-592.164754,-72166.195912
2259.126537,-10362.883188,4441.235652,-73698.386908
2259.129065,-11695.253884,11547.212695,-72012.976812
2259.131593,-19541.436869,-4885.359217,-76456.330700
2259.134120,-1628.453072,-888.247130,-80286.808190
2259.136648,15248.242405,10510.924376,-74004.825107
2259.139176,-10807.006753,3256.906145,-74770.920605
2259.141704,-13915.871710,3404.947333,-72779.072310
2259.144232,-18949.272115,5329.482782,-70634.004916
2259.146760,-6217.729913,1628.453072,-76609.549800
2259.149287,3256.906145,5921.647536,-73545.167808
2259.151815,3997.112087,3256.906145,-75690.235202
2259.154343,-15248.242405,4145.153275,-73545.167808
2259.156871,-7698.141797,3701.029710,-72932.291410
2259.159399,-11547.212695,2220.617826,-75690.235202
2259.161927,4441.235652,2072.576638,-77375.645298
2259.164455,3108.864956,7105.977043,-74311.263306
2259.166982,-12139.377449,6957.935855,-72166.195912
2259.169510,-4441.235652,2960.823768,-72779.072310
2259.172038,-26647.413912,5181.441594,-72932.291410
2259.174566,3849.070898,4145.153275,-79520.712692
2259.177094,-3108.864956,740.205942,-77375.645298
2259.179622,-10510.924376,3701.029710,-73851.606007
2259.182149,-1628.453072,5329.482782,-76149.892501
2259.184677,-6661.853478,2664.741391,-78448.178995
2259.187205,-1036.288319,148.041188,-76609.549800
2259.189733,-14359.995275,3404.947333,-75690.235202
2259.192261,-1776.494261,8882.471304,-74770.920605
2259.194789,-296.082377,-3849.070898,-77835.302597
2259.197316,-10214.842000,-1332.370696,-76762.768900
2259.199844,-1184.329507,14804.118840,-74158.044206
2259.202372,-11103.089130,740.205942,-74770.920605
2259.204900,-3552.988522,4737.318029,-72779.072310
2259.207428,-8438.347739,3701.029710,-71093.662214
2259.209956,11251.130318,2812.782580,-77835.302597
2259.212483,-592.164754,8142.265362,-74004.825107
2259.215011,-1924.535449,-1332.370696,-76609.549800
2259.217539,888.247130,3108.864956,-73391.948708
2259.220067,444.123565,4885.359217,-72932.291410
2259.222595,1332.370696,4293.194464,-73851.606007
2259.225141,5625.565159,2220.617826,-78141.740796
2259.227687,1480.411884,5625.565159,-70174.347617
2259.230234,-6809.894666,1776.494261,-73851.606007
2259.232780,592.164754,5773.606348,-74770.920605
2259.235326,1628.453072,6513.812290,-73238.729609
2259.237873,-2220.617826,1924.535449,-75690.235202
2259.240419,-1184.329507,4145.153275,-74158.044206
2259.242965,-2516.700203,9326.594869,-70327.566716
2259.245511,-5033.400406,2368.659014,-72932.291410
2259.248058,9474.636058,2664.741391,-73698.386908
2259.250604,5625.565159,4145.153275,-74617.701505
2259.253150,-7698.141797,5181.441594,-72779.072310
2259.255697,-3404.947333,5477.523971,-71093.662214
2259.258243,-6069.688724,2960.823768,-73391.948708
2259.260789,2812.782580,2812.782580,-74924.139704
2259.263336,2368.659014,5181.441594,-73085.510509
2259.265882,-740.205942,3552.988522,-75230.577904
2259.268428,3108.864956,2812.782580,-74617.701505
2259.270974,-6661.853478,2516.700203,-76303.111601
2259.273521,9474.636058,3552.988522,-78754.617194
2259.276067,-2960.823768,2516.700203,-75690.235202
2259.278613,-15396.283594,-444.123565,-78448.178995
2259.281160,6217.729913,5181.441594,-76456.330700
2259.283706,7846.182985,4737.318029,-74004.825107
2259.286252,6365.771101,2664.741391,-75383.797003
2259.288799,296.082377,1184.329507,-74158.044206
2259.291345,-10362.883188,7550.100608,-75230.577904
2259.293891,-2812.782580,4885.359217,-74617.701505
2259.296438,5181.441594,2220.617826,-70634.004916
2259.298984,6365.771101,4145.153275,-76762.768900
2259.301530,-3849.070898,-592.164754,-79061.055394
2259.304076,-10807.006753,11843.295072,-72779.072310
2259.306623,-21465.972318,-12879.583391,-84883.381178
2259.309169,11547.212695,4441.235652,-73698.386908
2259.311715,-15692.365970,6069.688724,-75690.235202
2259.314262,888.247130,-2368.659014,-77682.083497
2259.316808,5329.482782,13323.706956,-73545.167808
2259.319354,-18949.272115,-3256.906145,-75077.358804
2259.321901,-5329.482782,2368.659014,-69101.813920
2259.324447,4885.359217,7550.100608,-74617.701505
2259.326885,-9474.636058,-888.247130,-78294.959896
2259.329322,-4589.276840,7402.059420,-69714.690318
2259.331760,-13767.830521,3256.906145,-73085.510509
2259.334198,740.205942,5181.441594,-73085.510509
2259.336635,-2220.617826,3108.864956,-75077.358804
2259.339073,-6957.935855,-296.082377,-77682.083497
2259.341511,-5033.400406,7254.018232,-74464.482406
2259.343948,-8142.265362,2960.823768,-75996.673402
2259.346386,6809.894666,-1332.370696,-77528.864398
2259.348824,-9178.553681,5477.523971,-72012.976812
2259.351261,444.123565,6217.729913,-74004.825107
2259.353699,-4737.318029,2516.700203,-74770.920605
2259.356137,-14804.118840,6365.771101,-70634.004916
2259.358574,9326.594869,3552.988522,-73085.510509
2259.361012,-7105.977043,5181.441594,-73238.729609
2259.363450,-5921.647536,4589.276840,-74617.701505
2259.365887,-11547.212695,4441.235652,-72166.195912
2259.368325,-18505.148550,3701.029710,-74464.482406
2259.370763,-3701.029710,3256.906145,-74924.139704
2259.373200,6957.935855,4441.235652,-72932.291410
2259.375638,-740.205942,5773.606348,-71246.881314
2259.378076,-7105.977043,3404.947333,-74004.825107
2259.380513,-24574.837274,3997.112087,-76762.768900
2259.382951,-6217.729913,7550.100608,-71706.538613
2259.385389,7846.182985,-1036.288319,-72012.976812
2259.387827,-2220.617826,1924.535449,-75383.797003
2259.390264,4589.276840,6957.935855,-76456.330700
2259.392702,-14804.118840,4293.194464,-75077.358804
2259.395140,-12435.459826,4885.359217,-70480.785816
2259.397577,-7254.018232,2812.782580,-71400.100414
2259.400015,19541.436869,1776.494261,-79214.274493
2259.402453,5329.482782,3108.864956,-79980.369991
2259.404890,-3997.112087,6365.771101,-72166.195912
2259.407328,-12139.377449,1628.453072,-76303.111601
2259.409766,7254.018232,-3849.070898,-77682.083497
2259.412203,-9770.718434,13323.706956,-69255.033019
2259.414641,12879.583391,-3849.070898,-84117.285680
2259.417079,4737.318029,11843.295072,-69408.252119
2259.419516,-12139.377449,3552.988522,-72472.634111
2259.421954,-3552.988522,-1332.370696,-74158.044206
2259.424437,4145.153275,11103.089130,-70787.224015
2259.426921,6365.771101,296.082377,-79214.274493
2259.429404,4293.194464,2664.741391,-75383.797003
2259.431887,-4737.318029,8586.388927,-70480.785816
2259.434371,-9622.677246,888.247130,-74464.482406
2259.436854,296.082377,3849.070898,-76149.892501
2259.439337,-7254.018232,148.041188,-77528.864398
2259.441821,3404.947333,-592.164754,-79367.493593
2259.444304,-5033.400406,7550.100608,-72625.853210
2259.446787,3404.947333,-4441.235652,-78907.836294
2259.449270,-11843.295072,-1036.288319,-77222.426198
2259.451754,-444.123565,10214.842000,-73698.386908
2259.454237,-148.041188,-1924.535449,-80746.465489
2259.456720,2960.823768,4441.235652,-75843.454302
2259.459204,-2812.782580,2664.741391,-78448.178995
2259.461687,-6069.688724,1036.288319,-78141.740796
2259.464170,148.041188,8290.306550,-72932.291410
2259.466654,6957.935855,888.247130,-76609.549800
2259.469137,3701.029710,6957.935855,-74617.701505
2259.471620,1480.411884,2664.741391,-76303.111601
2259.474104,-12731.542202,148.041188,-76609.549800
2259.476587,0.000000,11843.295072,-74617.701505
2259.479070,444.123565,-7105.977043,-81512.560987
2259.481554,13767.830521,444.123565,-75077.358804
2259.484037,-9474.636058,17764.942608,-69714.690318
2259.486520,-592.164754,-7994.224174,-82125.437386
2259.489004,-5773.606348,9474.636058,-77222.426198
2259.491487,-11399.171507,-2516.700203,-77682.083497
2259.493970,-2812.782580,-1036.288319,-77528.864398
2259.496453,-5329.482782,10362.883188,-74464.482406
2259.498937,-10510.924376,-1628.453072,-77222.426198
2259.501420,-592.164754,7254.018232,-78907.836294
2259.503903,-11399.171507,2960.823768,-72625.853210
2259.506387,-10066.800811,-740.205942,-73391.948708
2259.508870,1036.288319,11547.212695,-75077.358804
2259.511353,-14952.160028,-4885.359217,-79367.493593
2259.513837,-10807.006753,-2072.576638,-77528.864398
2259.516320,-5921.647536,8882.471304,-72166.195912
2259.518803,592.164754,-888.247130,-79061.055394
2259.521287,-1628.453072,5921.647536,-76915.987999
2259.523803,-8882.471304,1480.411884,-76915.987999
2259.526319,-10955.047942,6069.688724,-73391.948708
2259.528836,-12139.377449,2220.617826,-72472.634111
2259.531352,-1924.535449,1036.288319,-74311.263306
2259.533868,740.205942,6365.771101,-75843.454302
2259.536385,-1036.288319,5625.565159,-75996.673402
2259.538901,-8438.347739,3997.112087,-73851.606007
2259.541418,-3108.864956,3256.906145,-72779.072310
2259.543934,2664.741391,7698.141797,-72012.976812
2259.546450,-6661.853478,3701.029710,-74004.825107
2259.548967,-15544.324782,3701.029710,-76303.111601
2259.551483,-11991.336260,8734.430116,-74770.920605
2259.554000,-4737.318029,1776.494261,-75996.673402
2259.556516,7105.977043,-296.082377,-74770.920605
2259.559032,-5921.647536,7105.977043,-71553.319513
2259.561549,-15988.448347,3849.070898,-76609.549800
2259.564065,-11695.253884,9918.759623,-73698.386908
2259.566581,-8586.388927,-148.041188,-74464.482406
2259.569098,3701.029710,-4293.194464,-75996.673402
2259.571614,2812.782580,17320.819043,-72319.415011
2259.574131,-10658.965565,1332.370696,-81665.780087
2259.576647,-8734.430116,1036.288319,-77375.645298
2259.579163,-7994.224174,4737.318029,-72779.072310
2259.581680,-2072.576638,-2960.823768,-75690.235202
2259.584196,14211.954086,12139.377449,-69255.033019
2259.586712,2664.741391,-1036.288319,-80286.808190
2259.589229,-2960.823768,6809.894666,-72166.195912
2259.591745,-3849.070898,3997.112087,-74464.482406
2259.594262,-2072.576638,-4737.318029,-75996.673402
2259.596778,6365.771101,11547.212695,-72779.072310
2259.599294,10807.006753,1628.453072,-81206.122788
2259.601811,-2368.659014,-5773.606348,-80286.808190
2259.604327,-5329.482782,9918.759623,-69255.033019
2259.606843,-7402.059420,-296.082377,-76915.987999
2259.609360,15100.201217,-1036.288319,-78907.836294
2259.611876,1332.370696,12139.377449,-72166.195912
2259.614393,-4589.276840,3552.988522,-75077.358804
2259.616909,-4737.318029,740.205942,-75077.358804
2259.619425,-2220.617826,4885.359217,-71093.662214
2259.621942,-2220.617826,3108.864956,-71553.319513
2259.624388,9622.677246,3404.947333,-76456.330700
2259.626835,1036.288319,7994.224174,-72472.634111
2259.629281,-4737.318029,3849.070898,-71093.662214
2259.631727,-4885.359217,3552.988522,-75230.577904
2259.634174,5921.647536,3404.947333,-76303.111601
2259.636620,592.164754,3849.070898,-76762.768900
2259.639067,8142.265362,2664.741391,-77069.207099
2259.641513,-9030.512492,3108.864956,-74617.701505
2259.643959,-5773.606348,3256.906145,-74004.825107
2259.646406,11547.212695,3552.988522,-74158.044206
2259.648852,-1036.288319,7550.100608,-72932.291410
2259.651299,-296.082377,5477.523971,-73391.948708
2259.653745,-1332.370696,-444.123565,-74158.044206
2259.656191,-592.164754,9178.553681,-72625.853210
2259.658638,-1628.453072,-2664.741391,-77528.864398
2259.661084,12879.583391,6661.853478,-72012.976812
2259.663531,-7550.100608,11399.171507,-72472.634111
2259.665977,2368.659014,1036.288319,-74311.263306
2259.668423,-9918.759623,8290.306550,-70787.224015
2259.670870,-3701.029710,1332.370696,-73238.729609
2259.673316,-8586.388927,1924.535449,-76915.987999
2259.675763,-2368.659014,9030.512492,-73851.606007
2259.678209,-10658.965565,888.247130,-72932.291410
2259.680655,-1036.288319,7846.182985,-72779.072310
2259.683102,-7846.182985,3108.864956,-72932.291410
2259.685548,-7254.018232,0.000000,-79061.055394
2259.687995,1628.453072,13767.830521,-74617.701505
2259.690441,-14359.995275,0.000000,-73698.386908
2259.692887,-6661.853478,-4589.276840,-74924.139704
2259.695334,-4589.276840,9770.718434,-72319.415011
2259.697780,1036.288319,740.205942,-79367.493593
2259.700227,-148.041188,8290.306550,-72472.634111
2259.702673,-8586.388927,1776.494261,-73545.167808
2259.705119,-9622.677246,5329.482782,-74004.825107
2259.707566,-6217.729913,4441.235652,-77375.645298
2259.710012,5921.647536,1184.329507,-77528.864398
2259.712459,-7105.977043,5033.400406,-72779.072310
2259.714905,-7402.059420,9474.636058,-69101.813920
2259.717351,-6513.812290,6069.688724,-72319.415011
2259.719798,-7994.224174,-4145.153275,-81052.903688
2259.722287,-7550.100608,9178.553681,-72779.072310
2259.724776,-11399.171507,9326.594869,-73391.948708
2259.727266,-14063.912898,-296.082377,-78448.178995
2259.729755,4589.276840,5773.606348,-73851.606007
2259.732244,-6809.894666,0.000000,-79827.150892
2259.734733,-7105.977043,1628.453072,-81052.903688
2259.737222,-14359.995275,10362.883188,-70634.004916
2259.739712,-12879.583391,-1628.453072,-74924.139704
2259.742201,10658.965565,-1036.288319,-76303.111601
2259.744690,-10510.924376,4145.153275,-75996.673402
2259.747179,592.164754,8290.306550,-74617.701505
2259.749669,-5477.523971,1924.535449,-76303.111601
2259.752158,-6957.935855,5181.441594,-75077.358804
2259.754647,-15248.242405,-2516.700203,-77835.302597
2259.757136,22798.343014,9622.677246,-75383.797003
2259.759625,-4737.318029,444.123565,-81052.903688
2259.762115,740.205942,5033.400406,-75690.235202
2259.764604,-5033.400406,-2368.659014,-79367.493593
2259.767093,888.247130,2516.700203,-75537.016103
2259.769582,-3552.988522,11399.171507,-70940.443115
2259.772072,5033.400406,-3552.988522,-82431.875585
2259.774561,6365.771101,8438.347739,-69255.033019
2259.777050,-8142.265362,-296.082377,-75230.577904
2259.779539,1776.494261,4441.235652,-78141.740796
2259.782028,0.000000,10658.965565,-73698.386908
2259.784518,-2664.741391,740.205942,-80286.808190
2259.787007,3849.070898,-296.082377,-79673.931792
2259.789496,-1480.411884,7254.018232,-72932.291410
2259.791985,-7846.182985,1332.370696,-78907.836294
2259.794475,10362.883188,296.082377,-80286.808190
2259.796964,-4589.276840,4293.194464,-74617.701505
2259.799453,6513.812290,2960.823768,-75690.235202
2259.801942,-10510.924376,2664.741391,-72779.072310
2259.804431,-1036.288319,2812.782580,-77682.083497
2259.806921,3552.988522,3552.988522,-75383.797003
2259.809410,1628.453072,8586.388927,-70634.004916
2259.811899,11399.171507,2368.659014,-72779.072310
2259.814388,3108.864956,2516.700203,-73545.167808
2259.816878,-1332.370696,9474.636058,-74158.044206
2259.819367,1332.370696,3997.112087,-77988.521696
2259.821888,888.247130,3108.864956,-77069.207099
2259.824409,-2960.823768,1924.535449,-76303.111601
2259.826929,9918.759623,3849.070898,-77222.426198
2259.829450,-444.123565,6957.935855,-75537.016103
2259.831971,2072.576638,-2368.659014,-77069.207099
2259.834492,5625.565159,3256.906145,-74924.139704
2259.837013,-11991.336260,5329.482782,-72625.853210
2259.839534,4441.235652,6809.894666,-70480.785816
2259.842055,-6069.688724,1924.535449,-75230.577904
2259.844576,-1332.370696,9918.759623,-65118.117330
2259.847097,-16284.530724,4145.153275,-72932.291410
2259.849618,-1332.370696,-1332.370696,-76762.768900
2259.852139,-7698.141797,7994.224174,-69101.813920
2259.854659,-11251.130318,-1776.494261,-80286.808190
2259.857180,1036.288319,5625.565159,-75077.358804
2259.859701,-7994.224174,1776.494261,-75996.673402
2259.862222,-6365.771101,8734.430116,-73698.386908
2259.864743,-7402.059420,888.247130,-72779.072310
2259.867264,-10807.006753,-4885.359217,-80133.589091
2259.869785,1184.329507,12435.459826,-73238.729609
2259.872306,-3108.864956,592.164754,-74617.701505
2259.874827,-5477.523971,1776.494261,-75996.673402
2259.877348,-2220.617826,5033.400406,-73238.729609
2259.879869,-21910.095883,4441.235652,-73851.606007
2259.882389,-9474.636058,3849.070898,-75230.577904
2259.884910,-1480.411884,3997.112087,-73698.386908
2259.887431,2368.659014,1332.370696,-74464.482406
2259.889952,-11547.212695,4441.235652,-74617.701505
2259.892473,-7550.100608,3256.906145,-75690.235202
2259.894994,-13175.665768,740.205942,-78601.398095
2259.897515,-296.082377,3849.070898,-79214.274493
2259.900036,-9474.636058,1184.329507,-75996.673402
2259.902577,7994.224174,6069.688724,-73391.948708
2259.905118,-9622.677246,3256.906145,-75690.235202
2259.907660,-20577.725188,-1776.494261,-77375.645298
2259.910201,-1184.329507,10214.842000,-72779.072310
2259.912742,-1628.453072,-2960.823768,-77988.521696
2259.915284,-1924.535449,2220.617826,-75996.673402
2259.917825,1184.329507,12139.377449,-73851.606007
2259.920366,-16876.695478,-5625.565159,-83197.971083
2259.922908,-20133.601622,3701.029710,-71706.538613
2259.925449,2664.741391,5477.523971,-71859.757712
2259.927990,-8290.306550,-5329.482782,-80899.684589
2259.930532,17616.901420,15840.407159,-72319.415011
2259.933073,-5181.441594,-1628.453072,-75843.454302
2259.935614,-5329.482782,7254.018232,-70327.566716
2259.938156,888.247130,2960.823768,-75230.577904
2259.940697,1776.494261,-3404.947333,-79673.931792
2259.943238,-3849.070898,17320.819043,-68182.499322
2259.945780,9178.553681,-4589.276840,-81359.341888
2259.948321,-592.164754,3256.906145,-71400.100414
2259.950862,-2072.576638,7402.059420,-72472.634111
2259.953404,-6661.853478,148.041188,-79980.369991
2259.955945,12583.501014,8586.388927,-73238.729609
2259.958486,3997.112087,592.164754,-74924.139704
2259.961028,-2664.741391,1924.535449,-75383.797003
2259.963569,592.164754,5477.523971,-74158.044206
2259.966110,-10362.883188,3849.070898,-74004.825107
2259.968652,-2516.700203,1332.370696,-73851.606007
2259.971193,6661.853478,888.247130,-74158.044206
2259.973734,-7994.224174,5773.606348,-75537.016103
2259.976276,9326.594869,3256.906145,-75843.454302
2259.978817,-3404.947333,2516.700203,-76303.111601
2259.981358,-444.123565,4885.359217,-72625.853210
2259.983900,17764.942608,2664.741391,-72779.072310
2259.986441,-4441.235652,2072.576638,-71859.757712
2259.988982,13027.624579,5773.606348,-75077.358804
2259.991524,-8882.471304,8438.347739,-72319.415011
2259.994065,-10362.883188,3256.906145,-69714.690318
2259.996606,6217.729913,1628.453072,-72932.291410
2259.999148,12879.583391,9030.512492,-76915.987999
2260.001689,-1480.411884,1184.329507,-79061.055394
2260.004247,6661.853478,5921.647536,-69101.813920
2260.006804,-13323.706956,9030.512492,-72012.976812
2260.009361,7846.182985,-7254.018232,-82431.875585
2260.011919,1776.494261,14952.160028,-70021.128517
2260.014476,-12731.542202,-7846.182985,-79367.493593
2260.017033,9474.636058,6365.771101,-70021.128517
2260.019590,-26943.496289,7698.141797,-71706.538613
2260.022148,-592.164754,-4145.153275,-78448.178995
2260.024705,1776.494261,9474.636058,-75383.797003
2260.027262,-11991.336260,-296.082377,-77222.426198
2260.029820,-5625.565159,2664.741391,-72012.976812
2260.032377,1036.288319,6513.812290,-74770.920605
2260.034934,-22798.343014,2072.576638,-76609.549800
2260.037491,-1628.453072,6513.812290,-71093.662214
2260.040049,-11251.130318,-444.123565,-76149.892501
2260.042606,-888.247130,4441.235652,-74770.920605
2260.045163,1776.494261,9918.759623,-73391.948708
2260.047720,-6365.771101,-2368.659014,-77682.083497
2260.050278,-12583.501014,6069.688724,-70327.566716
2260.052835,-18209.066173,5181.441594,-72166.195912
2260.055392,5329.482782,2664.741391,-78448.178995
2260.057950,-4293.194464,-148.041188,-78754.617194
2260.060507,2664.741391,-2072.576638,-81665.780087
2260.063064,-8290.306550,9918.759623,-71553.319513
2260.065621,-16728.654289,4441.235652,-75843.454302
2260.068179,-2072.576638,4441.235652,-77069.207099
2260.070736,444.123565,7254.018232,-69408.252119
2260.073293,-6365.771101,3552.988522,-72779.072310
2260.075850,-13915.871710,-2072.576638,-77069.207099
2260.078408,-11695.253884,10066.800811,-74770.920605
2260.080965,-8290.306550,148.041188,-75996.673402
2260.083522,4441.235652,-2812.782580,-76303.111601
2260.086080,-7846.182985,7846.182985,-74924.139704
2260.088637,-3701.029710,592.164754,-80440.027290
2260.091194,-9918.759623,4293.194464,-72932.291410
2260.093751,-7698.141797,4441.235652,-74464.482406
2260.096309,-7698.141797,-3256.906145,-77835.302597
2260.098866,16136.489536,3552.988522,-79980.369991
2260.101423,-4589.276840,-1776.494261,-81972.218286
2260.103980,-1184.329507,6661.853478,-73238.729609
2260.106549,-3997.112087,1184.329507,-76303.111601
2260.109118,1332.370696,-2072.576638,-77682.083497
2260.111687,-3701.029710,10658.965565,-72319.415011
2260.114256,7698.141797,-296.082377,-83197.971083
2260.116825,3552.988522,5329.482782,-72472.634111
2260.119394,-3256.906145,0.000000,-74004.825107
2260.121963,-6365.771101,2664.741391,-76762.768900
2260.124531,-592.164754,7846.182985,-74004.825107
2260.127100,7994.224174,-1036.288319,-77988.521696
2260.129669,6661.853478,296.082377,-73545.167808
2260.132238,-1924.535449,6661.853478,-73391.948708
2260.134807,3997.112087,3552.988522,-78141.740796
2260.137376,148.041188,-3701.029710,-82431.875585
2260.139945,-1480.411884,5477.523971,-76303.111601
2260.142513,6069.688724,4589.276840,-73545.167808
2260.145082,592.164754,4441.235652,-72932.291410
2260.147651,-2960.823768,444.123565,-78601.398095
2260.150220,1184.329507,3701.029710,-77222.426198
2260.152789,148.041188,3404.947333,-75383.797003
2260.155358,17912.983796,1332.370696,-76915.987999
2260.157927,-2812.782580,3849.070898,-74924.139704
2260.160495,-10214.842000,4293.194464,-76609.549800
2260.163064,-5181.441594,-296.082377,-76762.768900
2260.165633,2516.700203,1332.370696,-74924.139704
2260.168202,15544.324782,9770.718434,-72932.291410
2260.170771,-1184.329507,-3552.988522,-78907.836294
2260.173340,444.123565,4589.276840,-79673.931792
2260.175909,-11103.089130,1184.329507,-75843.454302
2260.178477,-4589.276840,8438.347739,-66650.308326
2260.181046,2368.659014,-3552.988522,-77682.083497
2260.183615,1628.453072,11843.295072,-67569.622924
2260.186184,-20281.642811,3997.112087,-76149.892501
2260.188753,1776.494261,-1628.453072,-76303.111601
2260.191322,-18209.066173,12435.459826,-66037.431928
2260.193891,3256.906145,-444.123565,-78448.178995
2260.196460,740.205942,2664.741391,-75383.797003
2260.199028,-10214.842000,3997.112087,-75230.577904
2260.201597,-1332.370696,6957.935855,-74617.701505
2260.204166,-16580.613101,-2960.823768,-78294.959896
2260.206735,-13619.789333,1628.453072,-74464.482406
2260.209312,4885.359217,9326.594869,-75077.358804
2260.211889,-3256.906145,888.247130,-77222.426198
2260.214466,-5033.400406,6661.853478,-72625.853210
2260.217043,-5181.441594,5773.606348,-70787.224015
2260.219620,-6217.729913,0.000000,-77375.645298
2260.222197,-8586.388927,5033.400406,-75537.016103
2260.224774,-888.247130,9326.594869,-70174.347617
2260.227352,-3404.947333,3552.988522,-73545.167808
2260.229929,-888.247130,2220.617826,-75690.235202
2260.232506,-18505.148550,6069.688724,-72779.072310
2260.235083,-9178.553681,3701.029710,-74158.044206
2260.237660,-8290.306550,2664.741391,-73851.606007
2260.240237,148.041188,3701.029710,-74617.701505
2260.242814,-6661.853478,2368.659014,-75690.235202
2260.245391,-5921.647536,8142.265362,-75690.235202
2260.247968,-4145.153275,-1184.329507,-78448.178995
2260.250545,-9326.594869,0.000000,-74004.825107
2260.253122,-5773.606348,11399.171507,-70940.443115
2260.255699,-5033.400406,-2220.617826,-80286.808190
2260.258276,-8882.471304,3552.988522,-74924.139704
2260.260853,4441.235652,5625.565159,-73698.386908
2260.263431,-18505.148550,-1332.370696,-73851.606007
2260.266008,13175.665768,12139.377449,-71859.757712
2260.268585,3701.029710,-3849.070898,-83504.409282
2260.271162,-1184.329507,7402.059420,-73238.729609
2260.273739,2960.823768,-1036.288319,-78141.740796
2260.276316,3849.070898,-1332.370696,-76303.111601
2260.278893,-11399.171507,10955.047942,-68488.937521
2260.281470,7254.018232,-1924.535449,-81512.560987
2260.284047,4441.235652,740.205942,-74770.920605
2260.286624,-1036.288319,8142.265362,-69714.690318
2260.289201,-2664.741391,-2368.659014,-77375.645298
2260.291778,3552.988522,8586.388927,-74464.482406
2260.294355,2516.700203,2072.576638,-76456.330700
2260.296932,4737.318029,-444.123565,-76609.549800
2260.299510,7402.059420,5773.606348,-74770.920605
2260.302087,-592.164754,1924.535449,-77222.426198
2260.304664,-4293.194464,5181.441594,-76149.892501
2260.307241,-1036.288319,4441.235652,-72012.976812
2260.309818,296.082377,1480.411884,-74464.482406
2260.312399,-5329.482782,5477.523971,-74158.044206
2260.314980,1924.535449,3997.112087,-74311.263306
2260.317561,4737.318029,1332.370696,-76303.111601
2260.320142,13175.665768,6661.853478,-75230.577904
2260.322723,-4885.359217,1924.535449,-74158.044206
2260.325304,-9326.594869,1332.370696,-74770.920605
2260.327885,1184.329507,3552.988522,-75690.235202
2260.330466,6957.935855,3552.988522,-75843.454302
2260.333047,6217.729913,5477.523971,-73851.606007
2260.335628,6069.688724,888.247130,-73545.167808
2260.338209,888.247130,4145.153275,-76915.987999
2260.340790,-12435.459826,3256.906145,-76456.330700
2260.343371,-3256.906145,8290.306550,-69561.471218
2260.345952,-740.205942,888.247130,-74158.044206
2260.348533,6809.894666,6957.935855,-69561.471218
2260.351114,-21614.013506,8142.265362,-71093.662214
2260.353695,-6809.894666,-2072.576638,-77222.426198
2260.356276,-3256.906145,9770.718434,-69561.471218
2260.358857,-6217.729913,-444.123565,-75383.797003
2260.361438,444.123565,6513.812290,-70940.443115
2260.364019,-8290.306550,3256.906145,-76609.549800
2260.366600,-9622.677246,10362.883188,-75843.454302
2260.369181,-6957.935855,-3404.947333,-77528.864398
2260.371762,-15396.283594,296.082377,-74004.825107
2260.374343,-1924.535449,8438.347739,-74004.825107
2260.376924,2072.576638,1480.411884,-80440.027290
2260.379505,-4293.194464,4293.194464,-75690.235202
2260.382086,-10214.842000,1184.329507,-71706.538613
2260.384667,-10066.800811,1184.329507,-76456.330700
2260.387248,-5033.400406,2812.782580,-75996.673402
2260.389829,2368.659014,592.164754,-79520.712692
2260.392410,-6217.729913,3849.070898,-79827.150892
2260.394991,-8586.388927,4441.235652,-74158.044206
2260.397572,-13323.706956,-1480.411884,-75843.454302
2260.400153,-6809.894666,2072.576638,-79827.150892
2260.402734,-5181.441594,5773.606348,-76456.330700
2260.405315,-11547.212695,-1924.535449,-79980.369991
2260.407896,-148.041188,10362.883188,-71859.757712
2260.410477,1628.453072,2960.823768,-74617.701505
2260.413058,-14656.077652,-1036.288319,-78294.959896
2260.415642,-6365.771101,9030.512492,-74464.482406
2260.418226,-14656.077652,148.041188,-75537.016103
2260.420809,-2220.617826,296.082377,-74617.701505
2260.423393,9030.512492,4885.359217,-73851.606007
2260.425977,-20873.807564,-3108.864956,-79214.274493
2260.428561,15988.448347,10362.883188,-74464.482406
2260.431144,-9030.512492,-3108.864956,-80133.589091
2260.433728,2812.782580,6217.729913,-74004.825107
2260.436312,7402.059420,-1036.288319,-79367.493593
2260.438896,592.164754,-740.205942,-80286.808190
2260.441480,-5921.647536,13175.665768,-69867.909418
2260.444063,2368.659014,-2960.823768,-78448.178995
2260.446647,148.041188,6661.853478,-69714.690318
2260.449231,2960.823768,1036.288319,-76609.549800
2260.451815,-1332.370696,5477.523971,-77988.521696
2260.454398,-148.041188,8586.388927,-71093.662214
2260.456982,-444.123565,-296.082377,-74770.920605
2260.459566,3997.112087,-1628.453072,-77835.302597
2260.462150,5329.482782,5773.606348,-76303.111601
2260.464733,-8734.430116,2072.576638,-76762.768900
2260.467317,-592.164754,3256.906145,-74770.920605
2260.469901,-888.247130,-740.205942,-73085.510509
2260.472485,-2812.782580,3552.988522,-74464.482406
2260.475069,3108.864956,5921.647536,-75383.797003
2260.477652,4589.276840,2960.823768,-76149.892501
2260.480236,5477.523971,6365.771101,-68182.499322
2260.482820,4589.276840,3701.029710,-71246.881314
2260.485404,-9622.677246,6513.812290,-74770.920605
2260.487987,2220.617826,4145.153275,-75230.577904
2260.490571,-3701.029710,2664.741391,-74158.044206
2260.493155,11991.336260,13767.830521,-72319.415011
2260.495739,3701.029710,-1480.411884,-75383.797003
2260.498322,-1480.411884,2072.576638,-75690.235202
2260.500906,-7105.977043,296.082377,-79367.493593
2260.503490,3552.988522,11251.130318,-69408.252119
2260.506074,-13471.748144,-4737.318029,-77988.521696
2260.508657,11251.130318,13619.789333,-65424.555529
2260.511241,-18653.189738,4293.194464,-74617.701505
2260.513825,-10362.883188,-3404.947333,-79520.712692
2260.516409,-4441.235652,14063.912898,-68642.156621
2260.518993,-3552.988522,-1776.494261,-77835.302597
2260.521577,-5625.565159,2368.659014,-75077.358804
2260.524161,-4885.359217,4589.276840,-76456.330700
2260.526746,-6957.935855,7698.141797,-76762.768900
2260.529330,-10955.047942,-1924.535449,-74924.139704
2260.531914,-8438.347739,2220.617826,-70940.443115
2260.534498,-2516.700203,6365.771101,-72472.634111
2260.537083,-2516.700203,6069.688724,-74464.482406
2260.539667,888.247130,2072.576638,-75690.235202
2260.542251,-11991.336260,5033.400406,-68948.594820
2260.544835,-3997.112087,1480.411884,-74158.044206
2260.547420,-7846.182985,2960.823768,-77069.207099
2260.550004,-12435.459826,5773.606348,-72779.072310
2260.552588,-444.123565,6513.812290,-73391.948708
2260.555172,-10214.842000,3404.947333,-75077.358804
2260.557756,-17320.819043,4293.194464,-72472.634111
2260.560341,-13027.624579,3108.864956,-76149.892501
2260.562925,-9030.512492,1036.288319,-77375.645298
2260.565509,-3108.864956,9178.553681,-72779.072310
2260.568093,444.123565,2220.617826,-71400.100414
2260.570678,-4589.276840,-888.247130,-74617.701505
2260.573262,-14804.118840,8586.388927,-73545.167808
2260.575846,-8882.471304,2220.617826,-77682.083497
2260.578430,-3701.029710,2072.576638,-71859.757712
2260.581014,7105.977043,6365.771101,-72319.415011
2260.583599,-5921.647536,-2664.741391,-80286.808190
2260.586183,7846.182985,7698.141797,-77069.207099
2260.588767,-13027.624579,2072.576638,-77222.426198
2260.591351,-1480.411884,-2368.659014,-75537.016103
2260.593936,8734.430116,5625.565159,-75077.358804
2260.596520,6809.894666,1628.453072,-79673.931792
2260.599104,-4737.318029,5773.606348,-75230.577904
2260.601688,2812.782580,1036.288319,-78141.740796
2260.604273,740.205942,3256.906145,-69867.909418
2260.606857,1480.411884,2368.659014,-72779.072310
2260.609441,1924.535449,2960.823768,-78141.740796
2260.612025,-1480.411884,7994.224174,-76609.549800
2260.614609,2812.782580,296.082377,-76915.987999
2260.617194,592.164754,1184.329507,-73698.386908
2260.619778,11251.130318,2812.782580,-76915.987999
2260.622362,-7105.977043,3404.947333,-79367.493593
2260.624947,888.247130,2072.576638,-78448.178995
2260.627531,-3108.864956,-148.041188,-77528.864398
2260.630115,592.164754,-1924.535449,-74770.920605
2260.632699,2072.576638,1924.535449,-74464.482406
2260.635284,19837.519246,4737.318029,-78141.740796
2260.637868,-9178.553681,2812.782580,-79520.712692
2260.640452,-15100.201217,8734.430116,-72319.415011
2260.643037,4589.276840,-5921.647536,-77069.207099
2260.645621,-888.247130,3849.070898,-74770.920605
2260.648205,9918.759623,8290.306550,-77375.645298
2260.650790,592.164754,-5181.441594,-80440.027290
2260.653374,5625.565159,5181.441594,-71553.319513
2260.655958,-2664.741391,8586.388927,-75077.358804
2260.658543,-3997.112087,-6365.771101,-82431.875585
2260.661127,3997.112087,12435.459826,-72472.634111
2260.663711,-7846.182985,-8734.430116,-82891.532884
2260.666296,-2960.823768,8734.430116,-70480.785816
2260.668880,-17024.736666,9474.636058,-72625.853210
2260.671464,-1924.535449,-3552.988522,-78141.740796
2260.674048,3108.864956,5625.565159,-75996.673402
2260.676633,-10955.047942,6661.853478,-71093.662214
2260.679217,-8734.430116,3404.947333,-71400.100414
2260.681801,-4293.194464,5181.441594,-76303.111601
2260.684386,-4737.318029,5033.400406,-76915.987999
2260.686970,-11251.130318,-148.041188,-77682.083497
2260.689554,-10214.842000,2368.659014,-74004.825107
2260.692139,-3701.029710,7105.977043,-71859.757712
2260.694723,-7402.059420,4293.194464,-76303.111601
2260.697307,8142.265362,2664.741391,-77835.302597
2260.699892,-6661.853478,3849.070898,-72932.291410
2260.702476,-2516.700203,1924.535449,-71859.757712
2260.705060,-4441.235652,4293.194464,-74311.263306
2260.707645,-5921.647536,4589.276840,-76149.892501
2260.710229,-1628.453072,4737.318029,-74770.920605
2260.712813,-12287.418637,3849.070898,-72625.853210
2260.715398,-15544.324782,1184.329507,-74924.139704
2260.717982,-18949.272115,4885.359217,-72625.853210
2260.720566,3256.906145,6513.812290,-75690.235202
2260.723150,9178.553681,2220.617826,-75690.235202
2260.725735,-4737.318029,3552.988522,-71553.319513
2260.728319,-15840.407159,6513.812290,-71706.538613
2260.730904,-11843.295072,1628.453072,-75383.797003
2260.733488,-12287.418637,3552.988522,-71553.319513
2260.736073,7698.141797,4885.359217,-74004.825107
2260.738657,1036.288319,740.205942,-76303.111601
2260.741241,2220.617826,4145.153275,-75690.235202
2260.743826,-3701.029710,1332.370696,-76762.768900
2260.746410,-2220.617826,2812.782580,-74924.139704
2260.748995,1628.453072,5181.441594,-75996.673402
2260.751579,11695.253884,-444.123565,-78294.959896
2260.754164,-4441.235652,7698.141797,-72932.291410
2260.756748,-2072.576638,2072.576638,-77835.302597
2260.759332,1924.535449,4441.235652,-73545.167808
2260.761917,-1184.329507,-592.164754,-75843.454302
2260.764501,5033.400406,0.000000,-77528.864398
2260.767086,-296.082377,8438.347739,-74158.044206
2260.769670,6365.771101,-1332.370696,-78141.740796
2260.772255,4441.235652,1184.329507,-76915.987999
2260.774839,-9326.594869,3849.070898,-73085.510509
2260.777423,2812.782580,1924.535449,-76609.549800
2260.780008,-5033.400406,2960.823768,-74770.920605
2260.782592,-592.164754,3997.112087,-74924.139704
2260.785177,7846.182985,-148.041188,-78448.178995
2260.787761,1776.494261,7846.182985,-74617.701505
2260.790346,16136.489536,2960.823768,-78754.617194
2260.792930,-7550.100608,1184.329507,-75843.454302
2260.795514,-296.082377,3108.864956,-74924.139704
2260.798099,-888.247130,1628.453072,-76149.892501
2260.800683,1480.411884,5033.400406,-75690.235202
2260.803268,7105.977043,3404.947333,-75537.016103
2260.805852,-148.041188,1776.494261,-73085.510509
2260.808436,6513.812290,5477.523971,-76609.549800
2260.811021,-9770.718434,2812.782580,-76609.549800
2260.813605,740.205942,5625.565159,-70021.128517
2260.816190,-14656.077652,-6513.812290,-79214.274493
2260.818774,5625.565159,9474.636058,-71246.881314
2260.821359,-23686.590144,7698.141797,-76762.768900
2260.823943,-3997.112087,-6217.729913,-80899.684589
2260.826527,-2960.823768,10066.800811,-69255.033019
2260.829057,-3256.906145,1036.288319,-75537.016103
2260.831587,-6661.853478,148.041188,-75383.797003
2260.834116,-8586.388927,6217.729913,-75690.235202
2260.836646,-5477.523971,5773.606348,-74311.263306
2260.839175,-3404.947333,2960.823768,-73238.729609
2260.841705,-12879.583391,6069.688724,-68642.156621
2260.844235,-148.041188,-1776.494261,-79520.712692
2260.846764,-10955.047942,8734.430116,-76303.111601
2260.849294,-11547.212695,5329.482782,-73085.510509
2260.851824,1036.288319,3256.906145,-72319.415011
2260.854353,-6957.935855,-592.164754,-77222.426198
2260.856883,-4441.235652,4885.359217,-75690.235202
2260.859412,-14211.954086,7402.059420,-70787.224015
2260.861942,3256.906145,5921.647536,-73085.510509
2260.864472,-13619.789333,1776.494261,-72779.072310
2260.867001,-15840.407159,6069.688724,-73851.606007
2260.869531,-8882.471304,2812.782580,-78448.178995
2260.872060,-8438.347739,6513.812290,-71706.538613
2260.874590,12287.418637,5773.606348,-70940.443115
2260.877120,-12583.501014,444.123565,-71553.319513
2260.879649,-13619.789333,13767.830521,-72166.195912
2260.882179,-7105.977043,2516.700203,-76456.330700
2260.884708,-15396.283594,-296.082377,-74464.482406
2260.887238,9622.677246,7550.100608,-71400.100414
2260.889768,-444.123565,0.000000,-74617.701505
2260.892297,8586.388927,11547.212695,-73851.606007
2260.894827,-6957.935855,-2220.617826,-76609.549800
2260.897356,148.041188,3701.029710,-69714.690318
2260.899886,2368.659014,4293.194464,-75230.577904
2260.902416,9770.718434,-1036.288319,-78448.178995
2260.904945,-5477.523971,13027.624579,-71706.538613
2260.907475,5033.400406,2072.576638,-76915.987999
2260.910004,2368.659014,2812.782580,-68795.375720
2260.912534,1036.288319,4441.235652,-71859.757712
2260.915064,-4737.318029,6217.729913,-77222.426198
2260.917593,9030.512492,5329.482782,-76762.768900
2260.920123,-1924.535449,5477.523971,-71859.757712
2260.922653,14508.036463,2960.823768,-72166.195912
2260.925182,-2072.576638,2516.700203,-75077.358804
2260.927712,-1480.411884,5033.400406,-75690.235202
2260.930253,-6069.688724,4145.153275,-75383.797003
2260.932795,-3701.029710,2812.782580,-74924.139704
2260.935336,9622.677246,3997.112087,-75843.454302
2260.937878,7846.182985,6365.771101,-78907.836294
2260.940419,-8882.471304,4293.194464,-77069.207099
2260.942961,2664.741391,592.164754,-77069.207099
2260.945502,-3108.864956,5773.606348,-71246.881314
2260.948044,8734.430116,3552.988522,-75690.235202
2260.950585,2368.659014,296.082377,-77069.207099
2260.953127,3552.988522,8438.347739,-70021.128517
2260.955668,2072.576638,3701.029710,-75230.577904
2260.958210,-3552.988522,-9030.512492,-84117.285680
2260.960751,3108.864956,12879.583391,-69255.033019
2260.963293,-7402.059420,-7698.141797,-79367.493593
2260.965834,296.082377,4885.359217,-74311.263306
2260.968376,-21021.848753,10658.965565,-73545.167808
2260.970917,-5033.400406,-4885.359217,-79061.055394
2260.973459,1776.494261,6069.688724,-72625.853210
2260.976000,-7254.018232,2960.823768,-73085.510509
2260.978541,-10807.006753,3701.029710,-76915.987999
2260.981083,-4885.359217,6513.812290,-75843.454302
2260.983624,-11103.089130,6661.853478,-75230.577904
2260.986166,-3849.070898,1332.370696,-75996.673402
2260.988707,-11251.130318,2516.700203,-73238.729609
2260.991249,-9326.594869,8142.265362,-73085.510509
2260.993790,-13175.665768,5773.606348,-75996.673402
2260.996332,296.082377,2664.741391,-75690.235202
2260.998873,-5625.565159,4885.359217,-74464.482406
2261.001415,1628.453072,3701.029710,-76609.549800
2261.003956,-9178.553681,3404.947333,-75690.235202
2261.006498,-8882.471304,5329.482782,-75843.454302
2261.009039,-3108.864956,-148.041188,-75077.358804
2261.011581,-20133.601622,2220.617826,-74464.482406
2261.014122,-3997.112087,2072.576638,-75230.577904
2261.016664,-8290.306550,2664.741391,-74770.920605
2261.019205,7402.059420,5625.565159,-74770.920605
2261.021747,-8882.471304,-296.082377,-75537.016103
2261.024288,-10510.924376,10955.047942,-73545.167808
2261.026830,-10658.965565,-592.164754,-79061.055394
2261.029371,-12139.377449,-1184.329507,-75996.673402
2261.031921,10807.006753,8734.430116,-72932.291410
2261.034472,-8882.471304,-2664.741391,-74924.139704
2261.037023,13175.665768,11843.295072,-73085.510509
2261.039574,-11843.295072,-740.205942,-79673.931792
2261.042125,5625.565159,888.247130,-75996.673402
2261.044676,3701.029710,4293.194464,-75690.235202
2261.047227,4737.318029,-296.082377,-76762.768900
2261.049777,-3256.906145,9918.759623,-73851.606007
2261.052328,1036.288319,3404.947333,-79520.712692
2261.054879,1924.535449,2072.576638,-71093.662214
2261.057430,1776.494261,-444.123565,-74311.263306
2261.059981,-2072.576638,3849.070898,-77222.426198
2261.062532,6069.688724,7550.100608,-76149.892501
2261.065083,-592.164754,1036.288319,-77835.302597
2261.067634,6661.853478,740.205942,-74770.920605
2261.070185,-3404.947333,3701.029710,-72625.853210
2261.072735,6217.729913,2220.617826,-79214.274493
2261.075286,592.164754,2072.576638,-77835.302597
2261.077837,-9030.512492,3849.070898,-71246.881314
2261.080388,14508.036463,3404.947333,-72625.853210
2261.082939,9622.677246,1628.453072,-78141.740796
2261.085490,-592.164754,7550.100608,-75383.797003
2261.088041,-5181.441594,296.082377,-77222.426198
2261.090592,-4441.235652,5773.606348,-72932.291410
2261.093143,15544.324782,7846.182985,-72472.634111
2261.095694,5921.647536,-2664.741391,-74924.139704
2261.098244,2812.782580,6365.771101,-77222.426198
2261.100795,-1332.370696,15100.201217,-71093.662214
2261.103346,-4737.318029,-5773.606348,-74770.920605
2261.105897,-2812.782580,10066.800811,-72472.634111
2261.108448,592.164754,-1332.370696,-78907.836294
2261.110999,-8438.347739,-1924.535449,-80133.589091
2261.113507,-10066.800811,10955.047942,-73085.510509
2261.116015,-12879.583391,148.041188,-75537.016103
2261.118523,4293.194464,2960.823768,-79214.274493
2261.121031,-6661.853478,2664.741391,-74770.920605
2261.123539,-13619.789333,1628.453072,-74617.701505
2261.126047,148.041188,5921.647536,-74004.825107
2261.128555,-11547.212695,5773.606348,-74617.701505
2261.131063,-1776.494261,148.041188,-75996.673402
2261.133571,-2220.617826,888.247130,-75843.454302
2261.136079,-17172.777854,8290.306550,-72166.195912
2261.138587,3997.112087,4737.318029,-74924.139704
2261.141095,-3404.947333,2812.782580,-73545.167808
2261.143603,-4145.153275,1184.329507,-76303.111601
2261.146111,-8142.265362,3108.864956,-76609.549800
2261.148620,-8586.388927,5921.647536,-75690.235202
2261.151128,-14063.912898,2368.659014,-76149.892501
2261.153636,-17024.736666,3849.070898,-74311.263306
2261.156144,-3552.988522,5921.647536,-79673.931792
2261.158652,-10214.842000,2664.741391,-75383.797003
2261.161160,2812.782580,1924.535449,-74004.825107
2261.163668,-1628.453072,3552.988522,-75843.454302
2261.166176,-3997.112087,9474.636058,-72932.291410
2261.168684,-16284.530724,-296.082377,-77069.207099
2261.171192,-11103.089130,-1628.453072,-76609.549800
2261.173700,13915.871710,9030.512492,-74770.920605
2261.176208,-17320.819043,-1776.494261,-79520.712692
2261.178716,13323.706956,8290.306550,-75230.577904
2261.181224,-4441.235652,-1924.535449,-81052.903688
2261.183732,-8438.347739,1628.453072,-75843.454302
2261.186240,11695.253884,2812.782580,-75383.797003
2261.188748,1480.411884,592.164754,-77222.426198
2261.191256,-3404.947333,7698.141797,-73851.606007
2261.193764,-148.041188,6217.729913,-77528.864398
2261.196272,592.164754,4589.276840,-72166.195912
2261.198780,3256.906145,-2516.700203,-74311.263306
2261.201288,-1480.411884,3701.029710,-76762.768900
2261.203796,148.041188,7550.100608,-75690.235202
2261.206304,1776.494261,1184.329507,-77988.521696
2261.208812,148.041188,296.082377,-75383.797003
2261.211321,740.205942,148.041188,-76915.987999
2261.213845,-2368.659014,2812.782580,-79520.712692
2261.216370,-2072.576638,6365.771101,-75077.358804
2261.218895,740.205942,2072.576638,-74770.920605
2261.221420,4737.318029,6661.853478,-71706.538613
2261.223945,15692.365970,-2220.617826,-77222.426198
2261.226470,-4293.194464,2812.782580,-76149.892501
2261.228995,-2664.741391,9474.636058,-72932.291410
2261.231520,5329.482782,3108.864956,-75690.235202
2261.234045,-4293.194464,-444.123565,-77069.207099
2261.236570,6365.771101,5181.441594,-71400.100414
2261.239095,7846.182985,1924.535449,-79214.274493
2261.241620,-8290.306550,2516.700203,-78754.617194
2261.244145,3404.947333,8586.388927,-68642.156621
2261.246670,-15544.324782,-4441.235652,-76456.330700
2261.249195,8438.347739,11695.253884,-64658.460031
2261.251720,-17320.819043,3849.070898,-71553.319513
2261.254245,-592.164754,-1184.329507,-77528.864398
2261.256770,-8586.388927,15692.365970,-65424.555529
2261.259295,-1628.453072,-1332.370696,-76915.987999
2261.261820,-6809.894666,444.123565,-73085.510509
2261.264345,-9474.636058,6365.771101,-72625.853210
2261.266870,-4293.194464,4885.359217,-76456.330700
2261.269395,1480.411884,4589.276840,-74158.044206
2261.271920,-15988.448347,1036.288319,-70634.004916
2261.274445,-9178.553681,3256.906145,-73391.948708
2261.276970,-11399.171507,5773.606348,-72779.072310
2261.279495,-1480.411884,3552.988522,-76609.549800
2261.282020,-2072.576638,9030.512492,-69867.909418
2261.284545,3997.112087,1184.329507,-72779.072310
2261.287070,-9474.636058,1628.453072,-75383.797003
2261.289595,-5181.441594,5181.441594,-72779.072310
2261.292120,-20873.807564,-296.082377,-74311.263306
2261.294645,-9326.594869,5033.400406,-70327.566716
2261.297170,4885.359217,7402.059420,-73085.510509
2261.299695,9178.553681,1184.329507,-77375.645298
2261.302220,-11843.295072,2072.576638,-70940.443115
2261.304745,-17172.777854,11991.336260,-73698.386908
2261.307270,-11103.089130,0.000000,-74924.139704
2261.309795,888.247130,-1036.288319,-70940.443115
2261.312320,7550.100608,8882.471304,-72166.195912
2261.314859,-9622.677246,1036.288319,-78907.836294
2261.317398,7994.224174,10807.006753,-72932.291410
2261.319937,-11695.253884,1332.370696,-73545.167808
2261.322476,-148.041188,-1036.288319,-74004.825107
2261.325015,10807.006753,6661.853478,-76915.987999
2261.327554,2368.659014,-296.082377,-79520.712692
2261.330093,-6365.771101,11695.253884,-70327.566716
2261.332632,-3256.906145,1332.370696,-76456.330700
2261.335171,4737.318029,3552.988522,-70787.224015
2261.337710,6957.935855,3108.864956,-73238.729609
2261.340248,-2516.700203,7254.018232,-76762.768900
2261.342787,3849.070898,6513.812290,-75690.235202
2261.345326,888.247130,3256.906145,-71400.100414
2261.347865,-3404.947333,296.082377,-73698.386908
2261.350404,8734.430116,3997.112087,-75077.358804
2261.352943,-6809.894666,6661.853478,-77682.083497
2261.355482,740.205942,5033.400406,-76303.111601
2261.358021,-3108.864956,3849.070898,-75537.016103
2261.360560,4441.235652,1924.535449,-75690.235202
2261.363099,7994.224174,3701.029710,-78754.617194
2261.365638,148.041188,3997.112087,-78754.617194
2261.368177,296.082377,4293.194464,-75690.235202
2261.370716,-148.041188,7550.100608,-71553.319513
2261.373255,-2516.700203,-6809.894666,-78754.617194
2261.375794,14211.954086,2072.576638,-77222.426198
2261.378333,-8142.265362,11399.171507,-74004.825107
2261.380872,3849.070898,4589.276840,-70940.443115
2261.383410,-9622.677246,5477.523971,-73391.948708
2261.385949,-11695.253884,2220.617826,-73085.510509
2261.388488,-10510.924376,1924.535449,-77682.083497
2261.391027,-2368.659014,5921.647536,-76762.768900
2261.393566,-15248.242405,6365.771101,-71553.319513
2261.396105,5625.565159,2072.576638,-78754.617194
2261.398644,-15988.448347,-1480.411884,-78141.740796
2261.401183,-12139.377449,5625.565159,-72166.195912
2261.403722,-6365.771101,4441.235652,-75230.577904
2261.406261,-2960.823768,5181.441594,-75690.235202
2261.408800,2664.741391,3849.070898,-71706.538613
2261.411339,-13471.748144,2072.576638,-75537.016103
2261.413878,-19985.560434,5329.482782,-77069.207099
2261.416427,2220.617826,3997.112087,-77375.645298
2261.418976,-10658.965565,4737.318029,-73851.606007
2261.421525,7550.100608,-1036.288319,-77988.521696
2261.424074,-8142.265362,2072.576638,-79367.493593
2261.426622,-17024.736666,4885.359217,-74158.044206
2261.429171,-21169.889941,2664.741391,-73085.510509
2261.431720,-740.205942,5477.523971,-77835.302597
2261.434269,-296.082377,4293.194464,-75843.454302
2261.436818,3997.112087,-2960.823768,-80286.808190
2261.439367,-14211.954086,6217.729913,-72779.072310
2261.441916,-17320.819043,9622.677246,-74770.920605
2261.444465,-12583.501014,-592.164754,-74617.701505
2261.447014,-7402.059420,0.000000,-72166.195912
2261.449563,11547.212695,8586.388927,-73238.729609
2261.452112,-15692.365970,1036.288319,-77375.645298
2261.454661,9770.718434,13323.706956,-71553.319513
2261.457210,-12731.542202,-3701.029710,-78448.178995
2261.459759,5477.523971,3997.112087,-73698.386908
2261.462308,11991.336260,4145.153275,-77682.083497
2261.464857,592.164754,1332.370696,-77682.083497
2261.467406,-5625.565159,8586.388927,-70327.566716
2261.469954,296.082377,2516.700203,-75690.235202
2261.472503,2664.741391,4145.153275,-70787.224015
2261.475052,5921.647536,2812.782580,-74004.825107
2261.477601,-2220.617826,7402.059420,-78294.959896
2261.480150,-1480.411884,5773.606348,-73851.606007
2261.482699,-10214.842000,3404.947333,-71093.662214
2261.485248,6217.729913,2516.700203,-74158.044206
2261.487797,1332.370696,2960.823768,-75077.358804
2261.490346,4589.276840,7698.141797,-75077.358804
2261.492895,-740.205942,6661.853478,-72779.072310
2261.495444,444.123565,2220.617826,-72472.634111
2261.497993,8882.471304,2368.659014,-74004.825107
2261.500542,6809.894666,3256.906145,-75383.797003
2261.503091,-1184.329507,2960.823768,-75996.673402
2261.505640,1480.411884,10066.800811,-72012.976812
2261.508189,-8142.265362,-1184.329507,-74311.263306
2261.510738,7254.018232,2516.700203,-74158.044206
2261.513286,14508.036463,13323.706956,-76762.768900
2261.515835,-296.082377,-5625.565159,-82738.313784
2261.518392,888.247130,9770.718434,-70480.785816
2261.520949,-18653.189738,-8734.430116,-78601.398095
2261.523506,-3108.864956,5625.565159,-72779.072310
2261.526063,-12287.418637,8586.388927,-74770.920605
2261.528620,5329.482782,-2812.782580,-77375.645298
2261.531177,296.082377,7994.224174,-70174.347617
2261.533734,-8586.388927,4145.153275,-73851.606007
2261.536291,-13175.665768,-2072.576638,-78141.740796
2261.538848,-9178.553681,2516.700203,-76609.549800
2261.541405,-4145.153275,5477.523971,-75690.235202
2261.543962,3849.070898,2220.617826,-75843.454302
2261.546519,-6513.812290,3256.906145,-74158.044206
2261.549076,-10066.800811,5329.482782,-74924.139704
2261.551633,-8734.430116,4589.276840,-76762.768900
2261.554190,-1924.535449,592.164754,-76456.330700
2261.556747,1332.370696,5181.441594,-72779.072310
2261.559304,-1924.535449,5625.565159,-72779.072310
2261.561861,-17616.901420,3997.112087,-74311.263306
2261.564418,-31088.649564,3701.029710,-74617.701505
2261.566975,740.205942,4737.318029,-75537.016103
2261.569532,-740.205942,3997.112087,-74004.825107
2261.572089,10807.006753,-444.123565,-79367.493593
2261.574646,-15100.201217,5921.647536,-75690.235202
2261.577203,-18653.189738,10362.883188,-73391.948708
2261.579760,-5033.400406,-3849.070898,-77069.207099
2261.582317,-10214.842000,1776.494261,-72779.072310
2261.584874,8882.471304,9178.553681,-74004.825107
2261.587431,-3552.988522,-1776.494261,-77988.521696
2261.589988,3404.947333,15396.283594,-70787.224015
2261.592545,-8290.306550,-3108.864956,-76456.330700
2261.595102,2072.576638,4293.194464,-71553.319513
2261.597659,11251.130318,6513.812290,-77375.645298
2261.600216,9030.512492,-1332.370696,-81359.341888
2261.602773,-9326.594869,9030.512492,-71859.757712
2261.605330,444.123565,3552.988522,-74617.701505
2261.607887,3552.988522,1036.288319,-72625.853210
2261.610444,4885.359217,3552.988522,-74770.920605
2261.613001,2812.782580,4885.359217,-77682.083497
2261.615558,3404.947333,5921.647536,-75537.016103
2261.618115,444.123565,2072.576638,-74158.044206
2261.620679,-1628.453072,2664.741391,-72012.976812
2261.623243,-3701.029710,4589.276840,-77528.864398
2261.625807,6365.771101,4145.153275,-77988.521696
2261.628370,444.123565,6809.894666,-72932.291410
2261.630934,148.041188,5033.400406,-71706.538613
2261.633498,7254.018232,-3108.864956,-75077.358804
2261.636061,6365.771101,6513.812290,-72319.415011
2261.638625,5477.523971,6809.894666,-74924.139704
2261.641189,-6217.729913,5477.523971,-74924.139704
2261.643752,-6365.771101,4441.235652,-70787.224015
2261.646316,11695.253884,-3404.947333,-78294.959896
2261.648880,-2220.617826,14804.118840,-72779.072310
2261.651444,6809.894666,148.041188,-75077.358804
2261.654007,-9178.553681,-740.205942,-78754.617194
2261.656571,-12287.418637,5625.565159,-70327.566716
2261.659135,-14656.077652,444.123565,-75537.016103
2261.661698,-2072.576638,-148.041188,-80746.465489
2261.664262,-5329.482782,8438.347739,-72472.634111
2261.666826,3404.947333,2516.700203,-77222.426198
2261.669390,-16580.613101,0.000000,-75996.673402
2261.671953,-12583.501014,4737.318029,-72012.976812
2261.674517,-9030.512492,2960.823768,-76149.892501
2261.677081,1628.453072,6661.853478,-72625.853210
2261.679644,2960.823768,4145.153275,-70634.004916
2261.682208,-13767.830521,1332.370696,-76303.111601
2261.684772,-10214.842000,7254.018232,-75230.577904
2261.687335,-1332.370696,-1628.453072,-77988.521696
2261.689899,3997.112087,2960.823768,-74464.482406
2261.692463,-888.247130,888.247130,-73545.167808
2261.695027,-12879.583391,-592.164754,-75230.577904
2261.697590,-25611.125593,5329.482782,-73851.606007
2261.700154,-5625.565159,4441.235652,-77682.083497
2261.702718,-8734.430116,740.205942,-74158.044206
2261.705281,14063.912898,1924.535449,-75230.577904
2261.707845,-9770.718434,3552.988522,-75996.673402
2261.710409,-12583.501014,10658.965565,-75690.235202
2261.712973,-9474.636058,444.123565,-77375.645298
2261.715536,-15544.324782,-2220.617826,-72012.976812
2261.718100,19393.395680,8438.347739,-70021.128517
2261.720664,-11547.212695,2220.617826,-76762.768900
2261.723232,6069.688724,14211.954086,-71553.319513
2261.725800,1924.535449,-3404.947333,-79520.712692
2261.728367,-7105.977043,4145.153275,-71553.319513
2261.730935,11251.130318,3997.112087,-76456.330700
2261.733503,9178.553681,-2072.576638,-78448.178995
2261.736071,-10658.965565,6809.894666,-73698.386908
2261.738639,9770.718434,3404.947333,-77375.645298
2261.741207,888.247130,888.247130,-72472.634111
2261.743775,-148.041188,3256.906145,-72319.415011
2261.746343,2664.741391,6217.729913,-75537.016103
2261.748911,7994.224174,8438.347739,-77682.083497
2261.751479,-2812.782580,-296.082377,-75383.797003
2261.754047,-1628.453072,4441.235652,-72319.415011
2261.756615,1184.329507,6957.935855,-72319.415011
2261.759183,2220.617826,-1628.453072,-80133.589091
2261.761751,-2812.782580,6661.853478,-74770.920605
2261.764319,-3108.864956,3108.864956,-75996.673402
2261.766886,21465.972318,1036.288319,-78601.398095
2261.769454,-2220.617826,3404.947333,-76609.549800
2261.772022,-444.123565,6957.935855,-75383.797003
2261.774590,-5625.565159,-888.247130,-77069.207099
2261.777158,296.082377,2072.576638,-75383.797003
2261.779726,10066.800811,10658.965565,-74464.482406
2261.782294,2072.576638,-6957.935855,-82278.656485
2261.784862,3997.112087,11991.336260,-75383.797003
2261.787430,-20429.683999,-2220.617826,-77375.645298
2261.789998,-7846.182985,2516.700203,-70327.566716
2261.792566,-12139.377449,7550.100608,-72779.072310
2261.795134,-4441.235652,444.123565,-76609.549800
2261.797702,10658.965565,4441.235652,-77682.083497
2261.800270,-12879.583391,3849.070898,-73851.606007
2261.802838,-21021.848753,5477.523971,-71706.538613
2261.805405,-7994.224174,-592.164754,-76456.330700
2261.807973,-2516.700203,6513.812290,-74464.482406
2261.810541,4145.153275,4885.359217,-76149.892501
2261.813109,-4293.194464,1776.494261,-75383.797003
2261.815677,-27683.702231,5329.482782,-72012.976812
2261.818245,-7994.224174,2072.576638,-75383.797003
2261.820813,-3997.112087,5625.565159,-74617.701505
2261.823381,5181.441594,5329.482782,-74311.263306
2261.825953,-7698.141797,1480.411884,-73698.386908
2261.828524,-10807.006753,4737.318029,-72319.415011
2261.831095,-23982.672521,3701.029710,-77222.426198
2261.833667,-6069.688724,1184.329507,-78601.398095
2261.836238,1480.411884,2812.782580,-78601.398095
2261.838810,-4293.194464,1332.370696,-77375.645298
2261.841381,-13471.748144,10214.842000,-70940.443115
2261.843953,-9178.553681,2516.700203,-75383.797003
2261.846524,-15100.201217,-888.247130,-77528.864398
2261.849096,12287.418637,7105.977043,-72932.291410
2261.851667,-9918.759623,-592.164754,-72012.976812
2261.854239,14656.077652,15248.242405,-68335.718422
2261.856810,-3404.947333,-296.082377,-77528.864398
2261.859382,-1924.535449,2812.782580,-73391.948708
2261.861953,3997.112087,7402.059420,-73238.729609
2261.864525,6809.894666,-888.247130,-75690.235202
2261.867096,-2220.617826,6957.935855,-72319.415011
2261.869668,5477.523971,3108.864956,-80593.246390
2261.872239,7254.018232,2220.617826,-74311.263306
2261.874811,-1628.453072,2072.576638,-74770.920605
2261.877382,-1332.370696,6365.771101,-73085.510509
2261.879954,5181.441594,2072.576638,-75690.235202
2261.882525,-7698.141797,2664.741391,-76456.330700
2261.885097,-2516.700203,4293.194464,-74004.825107
2261.887668,1184.329507,-1628.453072,-76456.330700
2261.890240,-6217.729913,6069.688724,-72319.415011
2261.892811,8290.306550,11695.253884,-71553.319513
2261.895383,6217.729913,-296.082377,-77375.645298
2261.897954,14063.912898,3256.906145,-76149.892501
2261.900526,-1480.411884,14804.118840,-64811.679131
2261.903097,-11547.212695,-1480.411884,-75077.358804
2261.905668,1184.329507,296.082377,-76915.987999
2261.908240,9178.553681,4885.359217,-75996.673402
2261.910811,2960.823768,7550.100608,-74464.482406
2261.913383,6513.812290,4441.235652,-69867.909418
2261.915954,-8142.265362,5033.400406,-75383.797003
2261.918526,-15544.324782,-1776.494261,-76609.549800
2261.921097,-17024.736666,6069.688724,-74004.825107
2261.923669,-4441.235652,3849.070898,-74924.139704
2261.926240,-5921.647536,6365.771101,-68795.375720
2261.928814,7994.224174,4589.276840,-76915.987999
2261.931388,-11399.171507,2368.659014,-73698.386908
2261.933962,-18505.148550,8586.388927,-68029.280222
2261.936536,-11843.295072,3108.864956,-75843.454302
2261.939110,9326.594869,3404.947333,-75077.358804
2261.941685,1480.411884,8290.306550,-71093.662214
2261.944259,-8734.430116,3849.070898,-74924.139704
2261.946833,-7402.059420,6365.771101,-72319.415011
2261.949407,-20133.601622,3404.947333,-71859.757712
2261.951981,11843.295072,5181.441594,-72932.291410
2261.954556,-6957.935855,4441.235652,-72779.072310
2261.957130,-10214.842000,4885.359217,-71553.319513
2261.959704,-14211.954086,8438.347739,-69408.252119
2261.962278,-14508.036463,-296.082377,-74617.701505
2261.964852,148.041188,2664.741391,-75690.235202
2261.967427,-6957.935855,3552.988522,-74158.044206
2261.970001,0.000000,8438.347739,-75230.577904
2261.972575,-4737.318029,740.205942,-77988.521696
2261.975149,-22946.384202,592.164754,-72472.634111
2261.977723,7698.141797,8142.265362,-69714.690318
2261.980298,-11695.253884,-1480.411884,-74770.920605
2261.982872,19541.436869,11399.171507,-75690.235202
2261.985446,-740.205942,-1184.329507,-79673.931792
2261.988020,-5625.565159,2368.659014,-72166.195912
2261.990594,3404.947333,5921.647536,-72472.634111
2261.993169,3108.864956,444.123565,-78294.959896
2261.995743,-6365.771101,8142.265362,-73698.386908
2261.998317,13619.789333,5625.565159,-74770.920605
2262.000891,444.123565,3404.947333,-72166.195912
2262.003465,2072.576638,1332.370696,-75383.797003
2262.006040,1036.288319,4441.235652,-75690.235202
2262.008614,-5773.606348,4885.359217,-75690.235202
2262.011188,4145.153275,148.041188,-74617.701505
2262.013762,2960.823768,5773.606348,-70787.224015
2262.016336,-7402.059420,6069.688724,-73391.948708
2262.018911,7254.018232,592.164754,-78907.836294
2262.021485,-2812.782580,6809.894666,-74617.701505
2262.024059,-1628.453072,148.041188,-75537.016103
2262.026633,19097.313304,5033.400406,-78754.617194
2262.029207,1628.453072,3997.112087,-76762.768900
2262.031783,-6809.894666,2664.741391,-74924.139704
2262.034358,-1924.535449,2960.823768,-72625.853210
2262.036933,7698.141797,3256.906145,-75383.797003
2262.039508,2516.700203,9178.553681,-71400.100414
2262.042083,9474.636058,2664.741391,-70327.566716
2262.044658,-9178.553681,4885.359217,-75383.797003
2262.047233,-9770.718434,5329.482782,-67109.965625
2262.049808,-21021.848753,4441.235652,-70787.224015
2262.052384,7698.141797,-2664.741391,-78601.398095
2262.054959,-9474.636058,12139.377449,-72012.976812
2262.057534,4145.153275,4441.235652,-76149.892501
2262.060109,-14656.077652,-1924.535449,-74464.482406
2262.062684,-16432.571912,8882.471304,-68335.718422
2262.065259,-3404.947333,-888.247130,-77835.302597
2262.067834,-1924.535449,5625.565159,-76303.111601
2262.070410,6069.688724,6365.771101,-70787.224015
2262.072985,4589.276840,148.041188,-74617.701505
2262.075560,-23390.507767,4145.153275,-72625.853210
2262.078135,-14656.077652,7846.182985,-73545.167808
2262.080710,8438.347739,5921.647536,-74617.701505
2262.083285,-9622.677246,4441.235652,-72166.195912
2262.085860,-13175.665768,5329.482782,-69101.813920
2262.088435,-8290.306550,6661.853478,-76149.892501
2262.091011,-13767.830521,3849.070898,-76303.111601
2262.093586,-2220.617826,1924.535449,-73545.167808
2262.096161,-5033.400406,3997.112087,-73698.386908
2262.098736,-3849.070898,4441.235652,-75077.358804
2262.101311,-7402.059420,4293.194464,-74004.825107
2262.103886,-16136.489536,2368.659014,-76762.768900
2262.106461,-2220.617826,3849.070898,-74464.482406
2262.109037,-3256.906145,-1776.494261,-72779.072310
2262.111612,14211.954086,13619.789333,-69714.690318
2262.114187,1036.288319,296.082377,-75077.358804
2262.116762,6661.853478,8142.265362,-74617.701505
2262.119337,-6069.688724,3108.864956,-74617.701505
2262.121912,2812.782580,0.000000,-74464.482406
2262.124487,5329.482782,5477.523971,-75843.454302
2262.127062,4737.318029,4885.359217,-78294.959896
2262.129638,7994.224174,3552.988522,-75077.358804
2262.132213,-148.041188,-444.123565,-75230.577904
2262.134789,-6809.894666,5625.565159,-75383.797003
2262.137364,1776.494261,4441.235652,-76149.892501
2262.139940,7994.224174,-3108.864956,-78601.398095
2262.142516,-2960.823768,8438.347739,-71093.662214
2262.145092,3256.906145,7402.059420,-70480.785816
2262.147668,-5625.565159,-148.041188,-78754.617194
2262.150243,13471.748144,-148.041188,-75230.577904
2262.152819,4737.318029,4145.153275,-72166.195912
2262.155395,8290.306550,7698.141797,-77069.207099
2262.157971,-1184.329507,-2960.823768,-79214.274493
2262.160547,-13471.748144,3108.864956,-69408.252119
2262.163122,4441.235652,7402.059420,-74158.044206
2262.165698,5477.523971,-7254.018232,-85189.819378
2262.168274,4441.235652,14211.954086,-68029.280222
2262.170850,-11103.089130,-1776.494261,-77069.207099
2262.173426,-7846.182985,1480.411884,-72012.976812
2262.176001,-22058.137072,7698.141797,-72932.291410
2262.178577,5033.400406,-3404.947333,-82891.532884
2262.181153,-1924.535449,9178.553681,-72625.853210
2262.183729,-3256.906145,5477.523971,-72932.291410
2262.186305,-14508.036463,-3997.112087,-77222.426198
2262.188880,-13175.665768,1184.329507,-74158.044206
2262.191456,-7846.182985,5329.482782,-76762.768900
2262.194032,6513.812290,444.123565,-79367.493593
2262.196608,-9918.759623,5329.482782,-72932.291410
2262.199184,2664.741391,2664.741391,-75996.673402
2262.201759,-15840.407159,5921.647536,-75077.358804
2262.204335,-13767.830521,5329.482782,-74004.825107
2262.206911,4737.318029,3552.988522,-74617.701505
2262.209487,-5921.647536,4737.318029,-74158.044206
2262.212063,-3849.070898,2664.741391,-78141.740796
2262.214638,-20725.766376,4737.318029,-73545.167808
2262.217214,-10066.800811,4145.153275,-72625.853210
2262.219790,-2072.576638,888.247130,-75996.673402
2262.222366,-2072.576638,9770.718434,-71246.881314
2262.224942,2220.617826,1924.535449,-74770.920605
2262.227517,-19393.395680,2368.659014,-74311.263306
2262.230093,-1776.494261,7402.059420,-75230.577904
2262.232669,-11843.295072,-3701.029710,-76456.330700
2262.235245,19393.395680,10214.842000,-72625.853210
2262.237821,6365.771101,444.123565,-81359.341888
2262.240397,3701.029710,2664.741391,-77222.426198
2262.242974,-1924.535449,5921.647536,-73698.386908
2262.245550,1184.329507,-3997.112087,-77222.426198
2262.248126,-11103.089130,4885.359217,-73545.167808
2262.250703,14952.160028,7698.141797,-77988.521696
2262.253279,6365.771101,2960.823768,-75383.797003
2262.255855,-740.205942,2516.700203,-75230.577904
2262.258432,-4441.235652,4737.318029,-72319.415011
2262.261008,10807.006753,3849.070898,-75996.673402
2262.263584,-6217.729913,740.205942,-77069.207099
2262.266160,5773.606348,-592.164754,-77682.083497
2262.268737,592.164754,2812.782580,-75537.016103
2262.271313,296.082377,3404.947333,-74924.139704
2262.273889,11991.336260,4885.359217,-74311.263306
2262.276466,1480.411884,4441.235652,-72319.415011
2262.279042,14656.077652,2516.700203,-73851.606007
2262.281618,-3849.070898,5477.523971,-70480.785816
2262.284195,296.082377,740.205942,-74464.482406
2262.286771,3849.070898,3701.029710,-72319.415011
2262.289347,-6069.688724,6069.688724,-77988.521696
2262.291924,11399.171507,3997.112087,-74311.263306
2262.294500,1332.370696,4293.194464,-75690.235202
2262.297076,-20725.766376,2812.782580,-72012.976812
2262.299653,-13027.624579,3849.070898,-74617.701505
2262.302229,-4441.235652,2516.700203,-76762.768900
2262.304805,-6661.853478,6513.812290,-70327.566716
2262.307382,6217.729913,4293.194464,-74004.825107
2262.309958,-11991.336260,3404.947333,-73698.386908
2262.312534,-12139.377449,6513.812290,-68795.375720
2262.315110,-13027.624579,6217.729913,-70327.566716
2262.317687,-3256.906145,4589.276840,-71553.319513
2262.320264,3552.988522,5921.647536,-71400.100414
2262.322840,-13175.665768,4293.194464,-75383.797003
2262.325417,-9030.512492,6069.688724,-74004.825107
2262.327994,-7994.224174,2368.659014,-74924.139704
2262.330571,-7402.059420,4441.235652,-72319.415011
2262.333148,-296.082377,592.164754,-73851.606007
2262.335724,-19837.519246,5181.441594,-75230.577904
2262.338301,-8438.347739,7105.977043,-76303.111601
2262.340878,-13471.748144,3552.988522,-73238.729609
2262.343455,-11399.171507,1036.288319,-72166.195912
2262.346032,10658.965565,10510.924376,-73085.510509
2262.348608,-5773.606348,1776.494261,-77988.521696
2262.351185,-15988.448347,1036.288319,-76303.111601
2262.353762,-1480.411884,8586.388927,-69561.471218
2262.356339,-20281.642811,-1776.494261,-74924.139704
2262.358916,26203.290347,8438.347739,-77375.645298
2262.361492,8586.388927,-1776.494261,-78141.740796
2262.364069,-740.205942,8290.306550,-70940.443115
2262.366646,-4145.153275,2812.782580,-74158.044206
2262.369223,-592.164754,-444.123565,-77222.426198
2262.371800,-8142.265362,6513.812290,-74770.920605
2262.374376,16580.613101,4589.276840,-80746.465489
2262.376953,3256.906145,3552.988522,-75690.235202
2262.379530,3997.112087,-740.205942,-74004.825107
2262.382107,-3701.029710,4885.359217,-76149.892501
2262.384684,-8438.347739,2516.700203,-78448.178995
2262.387260,6069.688724,0.000000,-77222.426198
2262.389837,592.164754,3552.988522,-72932.291410
2262.392414,2664.741391,-1036.288319,-78601.398095
2262.394991,2812.782580,888.247130,-79673.931792
2262.397568,6957.935855,2960.823768,-78141.740796
2262.400144,11103.089130,888.247130,-78754.617194
2262.402721,5033.400406,5921.647536,-78754.617194
2262.405298,-3404.947333,-3552.988522,-77835.302597
2262.407875,-7698.141797,1184.329507,-75077.358804
2262.410452,9622.677246,7550.100608,-77835.302597
2262.413028,6365.771101,-6661.853478,-80286.808190
2262.415605,5181.441594,10066.800811,-67876.061123
2262.418182,-9622.677246,-148.041188,-77835.302597
2262.420759,-9918.759623,8290.306550,-70480.785816
2262.423296,-21317.931130,5329.482782,-73085.510509
2262.425833,4589.276840,-4885.359217,-77222.426198
2262.428370,-1480.411884,12583.501014,-72472.634111
2262.430907,-5625.565159,10510.924376,-73851.606007
2262.433444,-14656.077652,-4589.276840,-78754.617194
2262.435981,-16876.695478,4293.194464,-73545.167808
2262.438518,-7994.224174,2960.823768,-75690.235202
2262.441054,3849.070898,1776.494261,-76762.768900
2262.443591,-7550.100608,8586.388927,-72319.415011
2262.446128,-7550.100608,740.205942,-75383.797003
2262.448665,-12731.542202,4737.318029,-74464.482406
2262.451202,-3701.029710,2812.782580,-75537.016103
2262.453739,-1184.329507,3997.112087,-75230.577904
2262.456276,-5625.565159,5181.441594,-74464.482406
2262.458813,-13027.624579,2960.823768,-71706.538613
2262.461350,-18357.107362,6217.729913,-72625.853210
2262.463887,-11547.212695,-2368.659014,-76303.111601
2262.466424,6069.688724,9030.512492,-74770.920605
2262.468961,-6217.729913,3256.906145,-76303.111601
2262.471498,-9178.553681,-3404.947333,-75996.673402
2262.474035,-1036.288319,11251.130318,-71093.662214
2262.476572,-22354.219448,148.041188,-77375.645298
2262.479109,16432.571912,2220.617826,-78294.959896
2262.481646,6809.894666,4293.194464,-75230.577904
2262.484183,5921.647536,1184.329507,-74924.139704
2262.486720,5625.565159,5625.565159,-76609.549800
2262.489257,-7846.182985,5033.400406,-76149.892501
2262.491793,-4145.153275,296.082377,-70787.224015
2262.494330,6661.853478,6069.688724,-73085.510509
2262.496867,6069.688724,5625.565159,-75383.797003
2262.499404,10510.924376,2960.823768,-76149.892501
2262.501941,-6069.688724,2220.617826,-76456.330700
2262.504478,-6069.688724,5329.482782,-73698.386908
2262.507015,-740.205942,2960.823768,-73238.729609
2262.509552,-6957.935855,3404.947333,-74158.044206
2262.512089,9178.553681,4145.153275,-77528.864398
2262.514626,-5477.523971,5625.565159,-75383.797003
2262.517163,17912.983796,5181.441594,-73851.606007
2262.519700,-2072.576638,3256.906145,-70480.785816
2262.522237,14211.954086,7402.059420,-76609.549800
2262.524782,-5033.400406,592.164754,-73085.510509
2262.527327,-9622.677246,-2368.659014,-74004.825107
2262.529872,13323.706956,9918.759623,-76303.111601
2262.532416,-3997.112087,-4737.318029,-82738.313784
2262.534961,2960.823768,6365.771101,-76762.768900
2262.537506,-15544.324782,-2516.700203,-78294.959896
2262.540051,-11399.171507,5033.400406,-70787.224015
2262.542596,-17024.736666,5329.482782,-75230.577904
2262.545141,3701.029710,-1184.329507,-76609.549800
2262.547686,-1184.329507,6069.688724,-74464.482406
2262.550231,-1924.535449,7698.141797,-73545.167808
2262.552776,-16580.613101,-740.205942,-75383.797003
2262.555320,-13915.871710,2072.576638,-75383.797003
2262.557865,-10510.924376,2960.823768,-76915.987999
2262.560410,-296.082377,2220.617826,-75843.454302
2262.562955,-5033.400406,5033.400406,-71553.319513
2262.565500,-3256.906145,3552.988522,-75690.235202
2262.568045,-11547.212695,3997.112087,-77222.426198
2262.570590,444.123565,3701.029710,-75537.016103
2262.573135,-6365.771101,4589.276840,-71553.319513
2262.575680,-6069.688724,3997.112087,-73391.948708
2262.578224,-8882.471304,3108.864956,-76915.987999
2262.580769,-17764.942608,4293.194464,-74004.825107
2262.583314,-1776.494261,4737.318029,-75230.577904
2262.585859,-2960.823768,1776.494261,-77069.207099
2262.588404,148.041188,4441.235652,-72779.072310
2262.590949,-6809.894666,1924.535449,-77375.645298
2262.593494,-15692.365970,3404.947333,-78448.178995
2262.596039,-9622.677246,1332.370696,-75690.235202
2262.598584,15396.283594,9474.636058,-70480.785816
2262.601128,8586.388927,-5033.400406,-78754.617194
2262.603673,11991.336260,10362.883188,-72166.195912
2262.606218,-7105.977043,3256.906145,-76915.987999
2262.608763,-6809.894666,444.123565,-73085.510509
2262.611308,7550.100608,5181.441594,-72625.853210
2262.613853,4145.153275,3997.112087,-78141.740796
2262.616398,13619.789333,3256.906145,-75537.016103
2262.618943,1776.494261,1480.411884,-75077.358804
2262.621488,-7698.141797,2812.782580,-75230.577904
2262.624032,-5033.400406,4441.235652,-73851.606007
2262.626584,2368.659014,1184.329507,-77835.302597
2262.629136,3256.906145,5033.400406,-73545.167808
2262.631688,2812.782580,4145.153275,-71093.662214
2262.634239,7698.141797,7254.018232,-74770.920605
2262.636791,15544.324782,7698.141797,-76762.768900
2262.639343,-3256.906145,8142.265362,-70021.128517
2262.641894,-6809.894666,3404.947333,-74004.825107
2262.644446,-2220.617826,-1332.370696,-75843.454302
2262.646998,6513.812290,13915.871710,-72319.415011
2262.649550,-592.164754,-5773.606348,-80899.684589
2262.652101,5625.565159,9178.553681,-76149.892501
2262.654653,-16432.571912,-1924.535449,-76762.768900
2262.657205,-9326.594869,1480.411884,-71093.662214
2262.659756,-19837.519246,11103.089130,-72166.195912
2262.662308,1184.329507,-592.164754,-77222.426198
2262.664860,-444.123565,2812.782580,-72779.072310
2262.667412,-3108.864956,8586.388927,-73085.510509
2262.669963,-14952.160028,-2368.659014,-76915.987999
2262.672515,-12139.377449,3701.029710,-74617.701505
2262.675067,-13767.830521,7254.018232,-72166.195912
2262.677618,4737.318029,0.000000,-77682.083497
2262.680170,-1480.411884,2220.617826,-75230.577904
2262.682722,-10362.883188,5773.606348,-74464.482406
2262.685274,-2812.782580,2516.700203,-78754.617194
2262.687825,-11695.253884,2664.741391,-74158.044206
2262.690377,2960.823768,3404.947333,-70940.443115
2262.692929,-5921.647536,6365.771101,-73391.948708
2262.695480,-11991.336260,2812.782580,-75996.673402
2262.698032,-20577.725188,5181.441594,-71859.757712
2262.700584,-6513.812290,6513.812290,-70787.224015
2262.703136,5181.441594,-1924.535449,-77988.521696
2262.705687,-2812.782580,6513.812290,-73851.606007
2262.708239,-5773.606348,7550.100608,-73238.729609
2262.710791,-12287.418637,-3701.029710,-81818.999186
2262.713342,3108.864956,1036.288319,-79520.712692
2262.715894,8586.388927,7846.182985,-73391.948708
2262.718446,9474.636058,-3108.864956,-80286.808190
2262.720998,11103.089130,7105.977043,-76149.892501
2262.723549,-8734.430116,1480.411884,-76303.111601
2262.726101,-2664.741391,-296.082377,-74004.825107
2262.728657,-2368.659014,6365.771101,-73698.386908
2262.731213,9770.718434,5181.441594,-77069.207099
2262.733769,12731.542202,3701.029710,-72625.853210
2262.736326,3701.029710,888.247130,-75230.577904
2262.738882,-4441.235652,5329.482782,-76149.892501
2262.741438,-7994.224174,7550.100608,-74311.263306
2262.743994,3849.070898,-1628.453072,-75537.016103
2262.746550,-2220.617826,1480.411884,-77528.864398
2262.749106,2664.741391,5033.400406,-75383.797003
2262.751662,13619.789333,444.123565,-76149.892501
2262.754219,11251.130318,4441.235652,-77375.645298
2262.756775,-7698.141797,3997.112087,-74617.701505
2262.759331,3256.906145,444.123565,-75690.235202
2262.761887,9474.636058,4589.276840,-74924.139704
2262.764443,592.164754,11547.212695,-72472.634111
2262.766999,5033.400406,592.164754,-74464.482406
2262.769555,3849.070898,5625.565159,-74924.139704
2262.772112,-16284.530724,-2368.659014,-77835.302597
2262.774668,-8882.471304,5033.400406,-72779.072310
2262.777224,-16876.695478,5625.565159,-73085.510509
2262.779780,-2220.617826,6661.853478,-70174.347617
2262.782336,4737.318029,-1924.535449,-77222.426198
2262.784892,-9326.594869,3108.864956,-74924.139704
2262.787448,-22206.178260,8882.471304,-72012.976812
2262.790005,-9918.759623,-2072.576638,-77069.207099
2262.792561,-3256.906145,5625.565159,-73085.510509
2262.795117,3256.906145,5625.565159,-74617.701505
2262.797673,-10955.047942,-1628.453072,-79980.369991
2262.800229,-6809.894666,5329.482782,-73851.606007
2262.802785,-13471.748144,3701.029710,-74464.482406
2262.805341,-10955.047942,4589.276840,-74311.263306
2262.807898,-3108.864956,4737.318029,-75537.016103
2262.810454,-1184.329507,2516.700203,-75996.673402
2262.813010,-25167.002028,3997.112087,-68642.156621
2262.815566,-6069.688724,2368.659014,-70174.347617
2262.818122,-3256.906145,2072.576638,-76303.111601
2262.820678,1628.453072,3701.029710,-75077.358804
2262.823234,-6217.729913,1776.494261,-78294.959896
2262.825791,-14063.912898,2960.823768,-76915.987999
2262.828347,-17024.736666,1480.411884,-75230.577904
2262.830907,15692.365970,10066.800811,-73698.386908
2262.833467,7994.224174,-5477.523971,-81206.122788
2262.836027,10955.047942,7846.182985,-72625.853210
2262.838587,-3404.947333,3404.947333,-78601.398095
2262.841147,1036.288319,-740.205942,-80133.589091
2262.843707,-14211.954086,4293.194464,-72779.072310
2262.846268,12435.459826,3701.029710,-76762.768900
2262.848828,9622.677246,4293.194464,-75383.797003
2262.851388,4145.153275,740.205942,-76149.892501
2262.853948,-11695.253884,3256.906145,-76456.330700
2262.856508,-1628.453072,4145.153275,-77835.302597
2262.859068,2812.782580,-1332.370696,-78141.740796
2262.861628,1776.494261,1036.288319,-77835.302597
2262.864188,3849.070898,2220.617826,-75843.454302
2262.866749,12287.418637,2072.576638,-75996.673402
2262.869309,7550.100608,3108.864956,-71859.757712
2262.871869,-2960.823768,1924.535449,-77375.645298
2262.874429,4293.194464,3849.070898,-75383.797003
2262.876989,4589.276840,2812.782580,-73851.606007
2262.879549,296.082377,13175.665768,-70327.566716
2262.882109,6069.688724,-2960.823768,-74464.482406
2262.884669,6809.894666,9474.636058,-75537.016103
2262.887230,-16580.613101,-1184.329507,-76149.892501
2262.889790,-14804.118840,3849.070898,-73391.948708
2262.892350,-11103.089130,2072.576638,-76149.892501
2262.894910,-4145.153275,5477.523971,-72319.415011
2262.897470,3108.864956,1332.370696,-77528.864398
2262.900030,-14804.118840,6809.894666,-72932.291410
2262.902590,-11399.171507,6809.894666,-68948.594820
2262.905150,-13767.830521,-148.041188,-76303.111601
2262.907710,-5329.482782,5329.482782,-73698.386908
2262.910271,5773.606348,5033.400406,-73698.386908
2262.912831,-12435.459826,-1184.329507,-75843.454302
2262.915391,-888.247130,2368.659014,-74311.263306
2262.917951,-13027.624579,4293.194464,-76303.111601
2262.920511,-9770.718434,2664.741391,-76609.549800
2262.923071,-7846.182985,-1776.494261,-78448.178995
2262.925631,-13767.830521,5033.400406,-70327.566716
2262.928191,-18653.189738,3552.988522,-74004.825107
2262.930752,-4737.318029,8882.471304,-74004.825107
2262.933276,-1184.329507,3552.988522,-75690.235202
2262.935802,148.041188,-888.247130,-73238.729609
2262.938329,-5329.482782,10807.006753,-69867.909418
2262.940855,-16432.571912,296.082377,-78294.959896
2262.943381,0.000000,592.164754,-76609.549800
2262.945907,4441.235652,11399.171507,-69255.033019
2262.948433,14804.118840,-4589.276840,-77069.207099
2262.950959,11991.336260,10807.006753,-72932.291410
2262.953486,-5625.565159,4145.153275,-76303.111601
2262.956012,-2516.700203,444.123565,-73698.386908
2262.958538,-148.041188,6069.688724,-72779.072310
2262.961064,5625.565159,7105.977043,-75230.577904
2262.963590,16136.489536,2368.659014,-76609.549800
2262.966116,-11991.336260,3849.070898,-74158.044206
2262.968643,-2220.617826,2812.782580,-77069.207099
2262.971169,-1628.453072,3997.112087,-75843.454302
2262.973695,-888.247130,1628.453072,-74311.263306
2262.976221,1184.329507,3404.947333,-77069.207099
2262.978747,8438.347739,5625.565159,-77069.207099
2262.981273,15100.201217,148.041188,-81359.341888
2262.983800,-5033.400406,10362.883188,-74464.482406
2262.986326,-6069.688724,-1332.370696,-78141.740796
2262.988852,-1036.288319,-1036.288319,-76762.768900
2262.991378,11843.295072,13915.871710,-72932.291410
2262.993904,5329.482782,-4293.194464,-77682.083497
2262.996430,6957.935855,6069.688724,-75996.673402
2262.998957,-18801.230927,-4145.153275,-80286.808190
2263.001483,-10362.883188,3552.988522,-72166.195912
2263.004009,-13767.830521,5921.647536,-74924.139704
2263.006535,-3108.864956,2812.782580,-75690.235202
2263.009061,7402.059420,888.247130,-78294.959896
2263.011587,-8882.471304,7550.100608,-73698.386908
2263.014114,-19985.560434,740.205942,-74004.825107
2263.016640,-13619.789333,1184.329507,-75843.454302
2263.019166,-10658.965565,6661.853478,-77069.207099
2263.021692,1184.329507,1184.329507,-78294.959896
2263.024218,-6513.812290,3552.988522,-74004.825107
2263.026744,-592.164754,4293.194464,-74924.139704
2263.029271,-2220.617826,592.164754,-78448.178995
2263.031797,-11991.336260,3256.906145,-79673.931792
2263.034333,-9474.636058,3849.070898,-74617.701505
2263.036870,-12139.377449,1924.535449,-71400.100414
2263.039406,-14063.912898,-148.041188,-77375.645298
2263.041942,-7402.059420,11991.336260,-72779.072310
2263.044479,-6217.729913,-1332.370696,-77988.521696
2263.047015,-3849.070898,1776.494261,-73085.510509
2263.049552,0.000000,6661.853478,-73391.948708
2263.052088,-14952.160028,-2516.700203,-81512.560987
2263.054625,-3404.947333,3108.864956,-77069.207099
2263.057161,4589.276840,9770.718434,-71706.538613
2263.059697,11103.089130,-2072.576638,-76303.111601
2263.062234,11103.089130,9474.636058,-74158.044206
2263.064770,-8438.347739,4589.276840,-77069.207099
2263.067307,-4441.235652,2664.741391,-73545.167808
2263.069843,5033.400406,3997.112087,-72779.072310
2263.072380,1332.370696,5181.441594,-75383.797003
2263.074916,16136.489536,1924.535449,-76303.111601
2263.077452,-1924.535449,4441.235652,-74464.482406
2263.079989,-7994.224174,3108.864956,-72932.291410
2263.082525,-7698.141797,3997.112087,-72012.976812
2263.085062,2368.659014,2812.782580,-77528.864398
2263.087598,5921.647536,3701.029710,-77222.426198
2263.090134,3552.988522,7254.018232,-74464.482406
2263.092671,21614.013506,5625.565159,-76456.330700
2263.095207,-3701.029710,3997.112087,-72932.291410
2263.097744,-9918.759623,5181.441594,-72779.072310
2263.100280,13767.830521,1628.453072,-76456.330700
2263.102817,3552.988522,9770.718434,-71093.662214
2263.105353,4145.153275,1480.411884,-71706.538613
2263.107889,6809.894666,6957.935855,-77528.864398
2263.110426,-18357.107362,-1332.370696,-78294.959896
2263.112962,-14063.912898,2072.576638,-71400.100414
2263.115499,-9474.636058,2664.741391,-75537.016103
2263.118035,-6069.688724,7846.182985,-75077.358804
2263.120572,8586.388927,-740.205942,-80440.027290
2263.123108,-11547.212695,8882.471304,-70634.004916
2263.125644,-19393.395680,3256.906145,-73085.510509
2263.128181,-14656.077652,-1184.329507,-78754.617194
2263.130717,-8586.388927,8290.306550,-73085.510509
2263.133254,2368.659014,8438.347739,-71706.538613
2263.135799,2664.741391,2072.576638,-76149.892501
2263.138344,-10362.883188,4441.235652,-74158.044206
2263.140889,-6217.729913,4145.153275,-76456.330700
2263.143434,-11843.295072,4737.318029,-75383.797003
2263.145979,-9622.677246,296.082377,-74158.044206
2263.148524,-10214.842000,2368.659014,-73851.606007
2263.151069,-18949.272115,3849.070898,-78754.617194
2263.153615,-2664.741391,5625.565159,-79214.274493
2263.156160,-6957.935855,2812.782580,-73545.167808
2263.158705,-9030.512492,148.041188,-77069.207099
2263.161250,6809.894666,5625.565159,-77682.083497
2263.163795,-23982.672521,888.247130,-75690.235202
2263.166340,17468.860231,5921.647536,-76303.111601
2263.168885,11399.171507,-2664.741391,-78294.959896
2263.171430,9474.636058,7254.018232,-73238.729609
2263.173975,-5625.565159,2812.782580,-77222.426198
2263.176520,3552.988522,3108.864956,-75537.016103
2263.179066,-12583.501014,3849.070898,-71246.881314
2263.181611,11103.089130,3256.906145,-76762.768900
2263.184156,-1332.370696,5477.523971,-75230.577904
2263.186701,12287.418637,2516.700203,-77528.864398
2263.189246,-14359.995275,4441.235652,-71553.319513
2263.191791,5033.400406,5329.482782,-74770.920605
2263.194336,-5477.523971,4589.276840,-75843.454302
2263.196881,-1628.453072,4885.359217,-72319.415011
2263.199426,12287.418637,1776.494261,-74158.044206
2263.201971,15100.201217,2220.617826,-77835.302597
2263.204517,-6661.853478,8438.347739,-72012.976812
2263.207062,740.205942,-1628.453072,-76303.111601
2263.209607,-888.247130,148.041188,-77069.207099
2263.212152,8142.265362,14063.912898,-70634.004916
2263.214697,9474.636058,-5329.482782,-79673.931792
2263.217242,2072.576638,8290.306550,-72932.291410
2263.219787,-7105.977043,1184.329507,-75690.235202
2263.222332,-17024.736666,3404.947333,-68029.280222
2263.224877,-13619.789333,7550.100608,-71706.538613
2263.227422,-888.247130,2516.700203,-74770.920605
2263.229968,444.123565,7105.977043,-71706.538613
2263.232513,-1184.329507,6661.853478,-73238.729609
2263.235058,-18061.024985,-444.123565,-75230.577904
2263.237610,-14508.036463,740.205942,-75383.797003
2263.240162,-7402.059420,4589.276840,-75690.235202
2263.242714,4145.153275,1036.288319,-76762.768900
2263.245267,-3997.112087,3997.112087,-71400.100414
2263.247819,-4737.318029,4589.276840,-71553.319513
2263.250371,-9474.636058,4293.194464,-75690.235202
2263.252923,-8142.265362,3404.947333,-74924.139704
2263.255475,-14952.160028,5329.482782,-68642.156621
2263.258028,-9918.759623,740.205942,-70174.347617
2263.260580,-6957.935855,2072.576638,-78294.959896
2263.263132,-9326.594869,15248.242405,-70021.128517
2263.265684,2960.823768,-2664.741391,-75996.673402
2263.268237,-18505.148550,1924.535449,-72319.415011
2263.270789,6217.729913,10214.842000,-74464.482406
2263.273341,-16136.489536,-888.247130,-73391.948708
2263.275893,11251.130318,11843.295072,-72472.634111
2263.278445,7254.018232,-1184.329507,-77375.645298
2263.280998,8438.347739,4293.194464,-72166.195912
2263.283550,-2220.617826,6957.935855,-75690.235202
2263.286102,5773.606348,3108.864956,-77069.207099
2263.288654,-13767.830521,3997.112087,-72012.976812
2263.291207,17912.983796,4441.235652,-75383.797003
2263.293759,1036.288319,7402.059420,-71093.662214
2263.296311,11103.089130,1480.411884,-76456.330700
2263.298863,-7994.224174,2220.617826,-74770.920605
2263.301415,2812.782580,3997.112087,-75690.235202
2263.303968,-7105.977043,7254.018232,-72779.072310
2263.306520,3108.864956,3849.070898,-73698.386908
2263.309072,9178.553681,5033.400406,-79520.712692
2263.311624,16580.613101,4737.318029,-78294.959896
2263.314177,-7550.100608,4589.276840,-71553.319513
2263.316729,-8290.306550,2664.741391,-74311.263306
2263.319281,12139.377449,-1480.411884,-80746.465489
2263.321833,-4885.359217,14508.036463,-71400.100414
2263.324385,11103.089130,-2220.617826,-75383.797003
2263.326938,1924.535449,6513.812290,-74158.044206
2263.329490,-23686.590144,1184.329507,-76456.330700
2263.332042,-3997.112087,1628.453072,-73545.167808
2263.334594,-22798.343014,5477.523971,-72779.072310
2263.337147,2516.700203,1628.453072,-74924.139704
2263.339704,6365.771101,148.041188,-81818.999186
2263.342261,-8290.306550,6069.688724,-76609.549800
2263.344818,-22206.178260,1924.535449,-73698.386908
2263.347375,-10066.800811,-1480.411884,-76303.111601
2263.349932,-9326.594869,5625.565159,-75077.358804
2263.352489,-2664.741391,2220.617826,-76915.987999
2263.355047,-592.164754,3108.864956,-75077.358804
2263.357604,-3701.029710,8586.388927,-70940.443115
2263.360161,-8438.347739,3108.864956,-73851.606007
2263.362718,-9030.512492,3552.988522,-75843.454302
2263.365275,-14063.912898,-1628.453072,-75690.235202
2263.367832,-10362.883188,5329.482782,-75537.016103
2263.370389,-9030.512492,5625.565159,-76609.549800
2263.372947,-5181.441594,-1184.329507,-80593.246390
2263.375504,-9326.594869,5033.400406,-75230.577904
2263.378061,-3849.070898,6957.935855,-71553.319513
2263.380618,-14804.118840,-296.082377,-73545.167808
2263.383175,-3256.906145,1332.370696,-75230.577904
2263.385732,12139.377449,6957.935855,-75996.673402
2263.388289,8734.430116,-2220.617826,-77222.426198
2263.390846,9030.512492,9918.759623,-69714.690318
2263.393404,-3849.070898,444.123565,-76303.111601
2263.395961,296.082377,1924.535449,-75537.016103
2263.398518,592.164754,4293.194464,-74924.139704
2263.401075,12287.418637,-148.041188,-78448.178995
2263.403632,6809.894666,4589.276840,-75383.797003
2263.406189,11547.212695,3997.112087,-77528.864398
2263.408746,2220.617826,3997.112087,-76915.987999
2263.411304,444.123565,6661.853478,-73545.167808
2263.413861,1184.329507,296.082377,-72472.634111
2263.416418,9622.677246,2664.741391,-78448.178995
2263.418975,11251.130318,296.082377,-84730.162079
2263.421532,3404.947333,4145.153275,-81359.341888
2263.424089,-10658.965565,888.247130,-75537.016103
2263.426646,-148.041188,-1924.535449,-76456.330700
2263.429204,4293.194464,12435.459826,-76303.111601
2263.431761,10214.842000,-4589.276840,-81512.560987
2263.434318,4145.153275,7402.059420,-72779.072310
2263.436875,-18949.272115,3108.864956,-72012.976812
2263.439432,-3701.029710,3108.864956,-68795.375720
2263.441993,-24426.796086,7550.100608,-72625.853210
2263.444555,4293.194464,3108.864956,-71093.662214
2263.447116,-1480.411884,3997.112087,-75537.016103
2263.449678,-6661.853478,7550.100608,-73391.948708
2263.452239,-18209.066173,1332.370696,-76762.768900
2263.454800,-11251.130318,1480.411884,-77069.207099
2263.457362,-10658.965565,3997.112087,-73851.606007
2263.459923,2516.700203,296.082377,-75230.577904
2263.462484,-2516.700203,4737.318029,-75230.577904
2263.465046,-1332.370696,5329.482782,-74924.139704
2263.467607,-10510.924376,3997.112087,-72012.976812
2263.470168,-8290.306550,2072.576638,-72779.072310
2263.472730,-16876.695478,592.164754,-75383.797003
2263.475291,-8882.471304,5773.606348,-78448.178995
2263.477852,-8882.471304,8586.388927,-72472.634111
2263.480414,-296.082377,-1628.453072,-76609.549800
2263.482975,-12583.501014,1184.329507,-74311.263306
2263.485537,4293.194464,12287.418637,-70327.566716
2263.488098,-19541.436869,-2960.823768,-75383.797003
2263.490659,3404.947333,5625.565159,-70327.566716
2263.493221,13619.789333,5625.565159,-73545.167808
2263.495782,2960.823768,148.041188,-78448.178995
2263.498343,9770.718434,9474.636058,-74158.044206
2263.500905,-4589.276840,1480.411884,-75843.454302
2263.503466,-2664.741391,2368.659014,-73085.510509
2263.506027,3108.864956,3701.029710,-76762.768900
2263.508589,7105.977043,4589.276840,-80746.465489
2263.511150,8142.265362,2516.700203,-74617.701505
2263.513711,-9918.759623,3256.906145,-72166.195912
2263.516273,-3404.947333,3256.906145,-76915.987999
2263.518834,-740.205942,3552.988522,-75230.577904
2263.521396,888.247130,2812.782580,-72012.976812
2263.523925,10362.883188,7105.977043,-73391.948708
2263.526455,13175.665768,3108.864956,-80286.808190
2263.528984,-1480.411884,3552.988522,-79980.369991
2263.531514,-2812.782580,-444.123565,-77069.207099
2263.534043,-2072.576638,2220.617826,-74770.920605
2263.536573,1036.288319,10214.842000,-72779.072310
2263.539103,9030.512492,-2220.617826,-76149.892501
2263.541632,4589.276840,9474.636058,-74617.701505
2263.544162,-17764.942608,888.247130,-73851.606007
2263.546691,-9326.594869,3256.906145,-71093.662214
2263.549221,-19541.436869,5477.523971,-76609.549800
2263.551751,3108.864956,6513.812290,-74311.263306
2263.554280,2812.782580,2664.741391,-79214.274493
2263.556810,-6957.935855,6513.812290,-70940.443115
2263.559339,-18653.189738,2220.617826,-72625.853210
2263.561869,-14508.036463,2220.617826,-76303.111601
2263.564399,-10955.047942,5477.523971,-75690.235202
2263.566928,5033.400406,4145.153275,-74770.920605
2263.569458,-4589.276840,2220.617826,-74924.139704
2263.571987,-2664.741391,3997.112087,-76149.892501
2263.574517,-17172.777854,4737.318029,-77069.207099
2263.577046,-10658.965565,1924.535449,-75230.577904
2263.579576,-2960.823768,444.123565,-76915.987999
2263.582106,-27387.619854,4737.318029,-71093.662214
2263.584635,14211.954086,5181.441594,-76762.768900
2263.587165,2072.576638,-296.082377,-75996.673402
2263.589694,-23834.631332,4145.153275,-71246.881314
2263.592224,1332.370696,2072.576638,-76149.892501
2263.594754,-15840.407159,-592.164754,-76609.549800
2263.597283,10955.047942,12139.377449,-72166.195912
2263.599813,13767.830521,-2960.823768,-79827.150892
2263.602342,5773.606348,6365.771101,-74311.263306
2263.604872,-1480.411884,4885.359217,-76149.892501
2263.607402,1628.453072,-1628.453072,-79061.055394
2263.609931,-5181.441594,5181.441594,-70940.443115
2263.612461,13027.624579,3404.947333,-74770.920605
2263.614990,-888.247130,5625.565159,-72779.072310
2263.617520,15840.407159,-148.041188,-76609.549800
2263.620049,-11103.089130,4441.235652,-71093.662214
2263.622579,-1480.411884,3997.112087,-73545.167808
2263.625118,1184.329507,148.041188,-77528.864398
2263.627658,4145.153275,4293.194464,-77069.207099
2263.630197,17468.860231,5773.606348,-74004.825107
2263.632736,3256.906145,-296.082377,-73391.948708
2263.635275,-3552.988522,4885.359217,-73698.386908
2263.637815,6809.894666,3256.906145,-76456.330700
2263.640354,-4145.153275,11399.171507,-71553.319513
2263.642893,9030.512492,-1332.370696,-75383.797003
2263.645433,5773.606348,7402.059420,-72319.415011
2263.647972,-22058.137072,3552.988522,-78141.740796
2263.650511,444.123565,4145.153275,-73391.948708
2263.653050,-32569.061448,6365.771101,-72625.853210
2263.655590,-2220.617826,1924.535449,-76915.987999
2263.658129,740.205942,1480.411884,-74924.139704
2263.660668,-4589.276840,10510.924376,-72779.072310
2263.663208,-14211.954086,2072.576638,-73238.729609
2263.665747,-14804.118840,-740.205942,-74004.825107
2263.668286,-15396.283594,7105.977043,-73698.386908
2263.670825,5773.606348,0.000000,-79827.150892
2263.673365,-740.205942,3108.864956,-76303.111601
2263.675904,592.164754,5921.647536,-73698.386908
2263.678443,-9030.512492,3701.029710,-75230.577904
2263.680983,-14359.995275,3108.864956,-76609.549800
2263.683522,-23982.672521,-740.205942,-75383.797003
2263.686061,-10807.006753,6661.853478,-77222.426198
2263.688600,3256.906145,7994.224174,-75537.016103
2263.691140,-8142.265362,1480.411884,-73545.167808
2263.693679,-26499.372724,1776.494261,-75690.235202
2263.696218,3108.864956,6661.853478,-72779.072310
2263.698758,-14804.118840,-2664.741391,-72625.853210
2263.701297,13175.665768,12879.583391,-73391.948708
2263.703836,10658.965565,-3701.029710,-84423.723880
2263.706375,4441.235652,4145.153275,-77069.207099
2263.708915,-740.205942,4589.276840,-77375.645298
2263.711454,148.041188,-3701.029710,-80746.465489
2263.713993,-9918.759623,6365.771101,-73698.386908
2263.716533,9326.594869,0.000000,-77069.207099
2263.719072,8586.388927,3256.906145,-75383.797003
2263.721611,10955.047942,3256.906145,-75996.673402
2263.724150,-3108.864956,1184.329507,-75537.016103
2263.726698,-888.247130,3849.070898,-78907.836294
2263.729245,0.000000,2368.659014,-75077.358804
2263.731793,9770.718434,3849.070898,-74924.139704
2263.734340,15396.283594,6661.853478,-77528.864398
2263.736888,4737.318029,-1480.411884,-75230.577904
2263.739435,-6365.771101,4145.153275,-72319.415011
2263.741983,8438.347739,3552.988522,-76303.111601
2263.744530,-6661.853478,10807.006753,-72472.634111
2263.747078,7254.018232,-3256.906145,-77528.864398
2263.749625,9770.718434,5329.482782,-75996.673402
2263.752172,-22354.219448,2368.659014,-74004.825107
2263.754720,-5773.606348,6217.729913,-70480.785816
2263.757267,-23390.507767,4589.276840,-75996.673402
2263.759815,-3256.906145,2960.823768,-71553.319513
2263.762362,5181.441594,5625.565159,-69561.471218
2263.764910,-1184.329507,8586.388927,-72166.195912
2263.767457,-17468.860231,4885.359217,-75383.797003
2263.770005,-12287.418637,592.164754,-75690.235202
2263.772552,-12879.583391,3256.906145,-72932.291410
2263.775099,2072.576638,3997.112087,-74617.701505
2263.777647,6661.853478,3997.112087,-75383.797003
2263.780194,-13323.706956,7698.141797,-72932.291410
2263.782742,-9474.636058,6069.688724,-72012.976812
2263.785289,-20133.601622,2220.617826,-71859.757712
2263.787837,-11695.253884,7254.018232,-73851.606007
2263.790384,-14211.954086,6809.894666,-72166.195912
2263.792932,8290.306550,3108.864956,-74158.044206
2263.795479,-1184.329507,5921.647536,-68795.375720
2263.798026,-22058.137072,0.000000,-77069.207099
2263.800574,-19541.436869,-148.041188,-78907.836294
2263.803121,-2516.700203,-3404.947333,-77375.645298
2263.805669,8734.430116,11991.336260,-71859.757712
2263.808216,17468.860231,-1332.370696,-80746.465489
2263.810764,1924.535449,7994.224174,-72472.634111
2263.813311,-6809.894666,3701.029710,-74004.825107
2263.815859,2960.823768,-1480.411884,-75537.016103
2263.818406,-3256.906145,4441.235652,-72779.072310
2263.820953,11991.336260,5477.523971,-76456.330700
2263.823501,7402.059420,7105.977043,-74158.044206
2263.826048,-7402.059420,2812.782580,-74311.263306
2263.828603,-6661.853478,6365.771101,-72779.072310
2263.831157,4737.318029,4293.194464,-75690.235202
2263.833712,-1184.329507,3552.988522,-77988.521696
2263.836266,14804.118840,5773.606348,-76149.892501
2263.838821,592.164754,10362.883188,-69714.690318
2263.841375,8734.430116,2072.576638,-70940.443115
2263.843930,-12435.459826,2812.782580,-70634.004916
2263.846484,11843.295072,14508.036463,-74770.920605
2263.849039,0.000000,-8586.388927,-79980.369991
2263.851593,3552.988522,8290.306550,-71706.538613
2263.854148,-13767.830521,5033.400406,-77528.864398
2263.856702,-5329.482782,3108.864956,-73238.729609
2263.859257,-24278.754898,4145.153275,-79061.055394
2263.861811,-2664.741391,740.205942,-76915.987999
2263.864365,-2368.659014,3849.070898,-74464.482406
2263.866920,888.247130,4145.153275,-80746.465489
2263.869474,-14063.912898,4737.318029,-74924.139704
2263.872029,-11695.253884,888.247130,-73698.386908
2263.874583,-17468.860231,2072.576638,-73545.167808
2263.877138,888.247130,592.164754,-76609.549800
2263.879692,-5921.647536,5477.523971,-75537.016103
2263.882247,-148.041188,5329.482782,-75383.797003
2263.884801,-9030.512492,1924.535449,-76303.111601
2263.887356,-17616.901420,3108.864956,-74158.044206
2263.889910,-9918.759623,1184.329507,-76762.768900
2263.892465,-17172.777854,5625.565159,-74004.825107
2263.895019,13619.789333,4737.318029,-73085.510509
2263.897574,-444.123565,2220.617826,-69561.471218
2263.900128,-25315.043216,1036.288319,-76149.892501
2263.902683,-1776.494261,5477.523971,-74924.139704
2263.905237,-5033.400406,-2516.700203,-77682.083497
2263.907792,15692.365970,10362.883188,-72779.072310
2263.910346,14952.160028,-6365.771101,-81665.780087
2263.912900,0.000000,11251.130318,-74311.263306
2263.915455,-2664.741391,3256.906145,-76456.330700
2263.918009,-5033.400406,-2072.576638,-74311.263306
2263.920564,-3108.864956,5921.647536,-72779.072310
2263.923118,17320.819043,3404.947333,-79061.055394
2263.925673,6217.729913,5033.400406,-75077.358804
2263.928227,-444.123565,1924.535449,-73545.167808
2263.930786,-6513.812290,5329.482782,-70021.128517
2263.933345,-2664.741391,4589.276840,-75996.673402
2263.935904,5329.482782,-444.123565,-77222.426198
2263.938464,3997.112087,7846.182985,-73085.510509
2263.941023,10066.800811,8882.471304,-71553.319513
2263.943582,7105.977043,-2664.741391,-72932.291410
2263.946141,-12287.418637,4145.153275,-73698.386908
2263.948701,14359.995275,12435.459826,-76456.330700
2263.951260,-6809.894666,-9326.594869,-81206.122788
2263.953819,8882.471304,9918.759623,-70787.224015
2263.956379,-7254.018232,444.123565,-77835.302597
2263.958938,-13323.706956,6809.894666,-70480.785816
2263.961497,-15988.448347,7105.977043,-74004.825107
2263.964056,-7550.100608,0.000000,-73391.948708
2263.966616,-3849.070898,8290.306550,-70327.566716
2263.969175,4589.276840,4293.194464,-77682.083497
2263.971734,-12435.459826,5181.441594,-75077.358804
2263.974294,-14359.995275,0.000000,-73238.729609
2263.976853,-13175.665768,2812.782580,-71553.319513
2263.979412,1628.453072,4737.318029,-75996.673402
2263.981972,296.082377,5033.400406,-76303.111601
2263.984531,5033.400406,3552.988522,-75383.797003
2263.987090,-13915.871710,4145.153275,-72779.072310
2263.989649,-14063.912898,2220.617826,-74464.482406
2263.992209,-21021.848753,1628.453072,-72472.634111
2263.994768,-5477.523971,7105.977043,-68948.594820
2263.997327,7105.977043,3552.988522,-71246.881314
2263.999887,1628.453072,2220.617826,-76303.111601
2264.002446,-20133.601622,8882.471304,-71706.538613
2264.005005,-20577.725188,1480.411884,-74770.920605
2264.007564,-7698.141797,-2960.823768,-74770.920605
2264.010124,20429.683999,5773.606348,-73545.167808
2264.012683,13471.748144,0.000000,-79061.055394
2264.015242,6661.853478,9474.636058,-74464.482406
2264.017802,-5329.482782,4293.194464,-72319.415011
2264.020361,-4885.359217,0.000000,-72779.072310
2264.022920,4441.235652,1184.329507,-74004.825107
2264.025480,12583.501014,7402.059420,-76915.987999
2264.028039,3256.906145,4737.318029,-74770.920605
2264.030598,1480.411884,3997.112087,-72932.291410
2264.033162,-17764.942608,6069.688724,-72319.415011
2264.035725,11103.089130,-592.164754,-80133.589091
2264.038289,3404.947333,-888.247130,-78448.178995
2264.040852,18801.230927,11991.336260,-69714.690318
2264.043416,1776.494261,-1184.329507,-75537.016103
2264.045980,-4589.276840,-592.164754,-80593.246390
2264.048543,9770.718434,6809.894666,-76456.330700
2264.051107,-9326.594869,5181.441594,-72625.853210
2264.053670,7254.018232,0.000000,-73545.167808
2264.056234,15100.201217,10214.842000,-75230.577904
2264.058797,-22798.343014,-5033.400406,-80593.246390
2264.061361,-3997.112087,4589.276840,-72625.853210
2264.063925,-21762.054695,5329.482782,-73391.948708
2264.066488,-8438.347739,-148.041188,-74617.701505
2264.069052,9770.718434,2516.700203,-77988.521696
2264.071615,-8586.388927,10658.965565,-72472.634111
2264.074179,-12287.418637,2516.700203,-74617.701505
2264.076743,-14063.912898,2516.700203,-72779.072310
2264.079306,-16876.695478,4441.235652,-72319.415011
2264.081870,10066.800811,5921.647536,-76149.892501
2264.084433,2220.617826,5773.606348,-74924.139704
2264.086997,-7550.100608,5477.523971,-71246.881314
2264.089560,-13619.789333,2072.576638,-73391.948708
2264.092124,-34937.720462,3256.906145,-74464.482406
2264.094688,-1332.370696,6809.894666,-77988.521696
2264.097251,-3701.029710,4441.235652,-75690.235202
2264.099815,1332.370696,3552.988522,-71859.757712
2264.102378,-5773.606348,2072.576638,-76762.768900
2264.104942,-18949.272115,6217.729913,-75996.673402
2264.107506,-12287.418637,2812.782580,-72166.195912
2264.110069,15544.324782,9030.512492,-68795.375720
2264.112633,9030.512492,-592.164754,-76456.330700
2264.115196,15248.242405,9918.759623,-72932.291410
2264.117760,-6069.688724,5921.647536,-74004.825107
2264.120323,-6069.688724,-1184.329507,-74617.701505
2264.122887,-3552.988522,2072.576638,-72166.195912
2264.125451,8438.347739,3701.029710,-79673.931792
2264.128014,15692.365970,4441.235652,-78294.959896
2264.130578,7994.224174,3108.864956,-73238.729609
2264.133141,-10658.965565,3849.070898,-70021.128517
2264.135674,-4589.276840,-296.082377,-75537.016103
2264.138208,5773.606348,4885.359217,-76303.111601
2264.140741,11843.295072,7254.018232,-74158.044206
2264.143274,13027.624579,1480.411884,-80286.808190
2264.145807,-5773.606348,4589.276840,-74464.482406
2264.148340,3997.112087,9918.759623,-71706.538613
2264.150873,-8142.265362,7698.141797,-74158.044206
2264.153406,9918.759623,-2516.700203,-74617.701505
2264.155939,9178.553681,9622.677246,-70787.224015
2264.158472,-18357.107362,-4293.194464,-79980.369991
2264.161005,-6513.812290,7402.059420,-70634.004916
2264.163538,-26647.413912,5181.441594,-72932.291410
2264.166071,-3997.112087,-444.123565,-73851.606007
2264.168605,6069.688724,2664.741391,-72472.634111
2264.171138,-4737.318029,8438.347739,-77375.645298
2264.173671,-6069.688724,4441.235652,-77069.207099
2264.176204,-14063.912898,-296.082377,-72932.291410
2264.178737,-17172.777854,3256.906145,-74770.920605
2264.181270,7402.059420,4737.318029,-76149.892501
2264.183803,-2960.823768,4293.194464,-75843.454302
2264.186336,-5625.565159,5329.482782,-72779.072310
2264.188869,-12435.459826,2960.823768,-73238.729609
2264.191402,-35825.967593,1332.370696,-74617.701505
2264.193935,888.247130,6069.688724,-78141.740796
2264.196468,-7254.018232,7105.977043,-76303.111601
2264.199001,9622.677246,296.082377,-74311.263306
2264.201535,-10658.965565,2220.617826,-74617.701505
2264.204068,-18801.230927,6069.688724,-76149.892501
2264.206601,-15544.324782,-444.123565,-74924.139704
2264.209134,11103.089130,9474.636058,-70634.004916
2264.211667,14656.077652,-148.041188,-78448.178995
2264.214200,16876.695478,7846.182985,-72932.291410
2264.216733,-10214.842000,3552.988522,-76762.768900
2264.219266,-6661.853478,-1036.288319,-76915.987999
2264.221799,-3552.988522,3256.906145,-71400.100414
2264.224332,7402.059420,3404.947333,-77988.521696
2264.226865,15396.283594,6513.812290,-76915.987999
2264.229398,-3108.864956,2368.659014,-74617.701505
2264.231931,-11695.253884,4737.318029,-72166.195912
2264.234465,-3997.112087,5033.400406,-74158.044206
2264.237007,2664.741391,2072.576638,-79061.055394
2264.239549,13767.830521,6513.812290,-76456.330700
2264.242092,-3256.906145,2516.700203,-66803.527426
2264.244634,4145.153275,2072.576638,-74158.044206
2264.247176,14656.077652,5033.400406,-77069.207099
2264.249719,-18653.189738,5625.565159,-71553.319513
2264.252261,14359.995275,2368.659014,-73238.729609
2264.254804,7402.059420,6217.729913,-76149.892501
2264.257346,-13323.706956,4145.153275,-71246.881314
2264.259888,-25611.125593,2812.782580,-76303.111601
2264.262431,-8290.306550,444.123565,-79980.369991
2264.264973,-14508.036463,6661.853478,-72779.072310
2264.267516,5181.441594,-1332.370696,-77069.207099
2264.270058,0.000000,8734.430116,-73085.510509
2264.272600,-14804.118840,5921.647536,-72472.634111
2264.275143,-15988.448347,-592.164754,-72625.853210
2264.277685,-13471.748144,5625.565159,-70480.785816
2264.280227,2960.823768,7698.141797,-72932.291410
2264.282770,4441.235652,6809.894666,-74770.920605
2264.285312,-3849.070898,5773.606348,-72012.976812
2264.287855,-19541.436869,296.082377,-71553.319513
2264.290397,-19985.560434,6661.853478,-71706.538613
2264.292939,3997.112087,5477.523971,-79367.493593
2264.295482,10214.842000,0.000000,-80133.589091
2264.298024,-13323.706956,7105.977043,-69408.252119
2264.300567,-296.082377,6957.935855,-73851.606007
2264.303109,-23094.425390,-444.123565,-75383.797003
2264.305651,-1184.329507,296.082377,-75996.673402
2264.308194,15100.201217,5773.606348,-73545.167808
2264.310736,20577.725188,1184.329507,-76762.768900
2264.313279,-592.164754,8290.306550,-73238.729609
2264.315821,1036.288319,4885.359217,-75230.577904
2264.318363,-9474.636058,2516.700203,-72472.634111
2264.320906,-148.041188,1776.494261,-72932.291410
2264.323448,13915.871710,7698.141797,-75537.016103
2264.325990,11991.336260,4589.276840,-77988.521696
2264.328533,-1924.535449,1184.329507,-78601.398095
2264.331075,-12879.583391,7402.059420,-70787.224015
2264.333618,1776.494261,-740.205942,-75077.358804
2264.336160,14508.036463,8438.347739,-74617.701505
2264.338710,17912.983796,4885.359217,-78754.617194
2264.341261,-5181.441594,-888.247130,-75996.673402
2264.343811,5329.482782,5033.400406,-72472.634111
2264.346361,-296.082377,9770.718434,-74004.825107
2264.348912,-7402.059420,-3701.029710,-78294.959896
2264.351462,17468.860231,8142.265362,-73698.386908
2264.354013,-13175.665768,592.164754,-74311.263306
2264.356563,-5625.565159,5773.606348,-71093.662214
2264.359113,-24278.754898,3256.906145,-77069.207099
2264.361664,-6217.729913,1924.535449,-76149.892501
2264.364214,-2960.823768,4145.153275,-73851.606007
2264.366764,3849.070898,4293.194464,-76609.549800
2264.369315,-8734.430116,5477.523971,-77069.207099
2264.371865,-15396.283594,4145.153275,-75077.358804
2264.374415,-8734.430116,-1924.535449,-75996.673402
2264.376966,-4145.153275,4737.318029,-75077.358804
2264.379516,5921.647536,2516.700203,-76915.987999
2264.382067,1332.370696,3701.029710,-78907.836294
2264.384617,-17468.860231,3701.029710,-73391.948708
2264.387167,-24574.837274,-2220.617826,-75383.797003
2264.389718,-17320.819043,8438.347739,-75996.673402
2264.392268,4737.318029,-296.082377,-80440.027290
2264.394818,-1924.535449,1480.411884,-74924.139704
2264.397369,-12435.459826,8734.430116,-70787.224015
2264.399919,-15988.448347,-1924.535449,-74617.701505
2264.402469,-11695.253884,-2368.659014,-74770.920605
2264.405020,14211.954086,11991.336260,-73238.729609
2264.407570,13471.748144,-3108.864956,-78294.959896
2264.410121,11251.130318,10214.842000,-72932.291410
2264.412671,-6809.894666,6661.853478,-75690.235202
2264.415221,-3256.906145,-3108.864956,-77682.083497
2264.417772,-7254.018232,4441.235652,-72472.634111
2264.420322,11547.212695,3552.988522,-75690.235202
2264.422872,15100.201217,1776.494261,-81206.122788
2264.425423,-1036.288319,3404.947333,-77069.207099
2264.427973,-5625.565159,7550.100608,-70021.128517
2264.430524,4885.359217,6069.688724,-72319.415011
2264.433074,9622.677246,3108.864956,-77222.426198
2264.435624,16876.695478,3701.029710,-79520.712692
2264.438175,-2516.700203,6513.812290,-73851.606007
2264.440731,9178.553681,-740.205942,-74617.701505
2264.443287,-7550.100608,15248.242405,-70787.224015
2264.445843,-888.247130,-6661.853478,-78601.398095
2264.448399,6365.771101,5773.606348,-75077.358804
2264.450956,-11399.171507,8142.265362,-72779.072310
2264.453512,-2072.576638,1924.535449,-71706.538613
2264.456068,-26351.331535,6809.894666,-76149.892501
2264.458624,-7105.977043,1332.370696,-75996.673402
2264.461180,-11843.295072,4145.153275,-70021.128517
2264.463736,-3997.112087,5921.647536,-75537.016103
2264.466293,-2664.741391,6069.688724,-74464.482406
2264.468849,-11991.336260,2664.741391,-74770.920605
2264.471405,-29608.237680,592.164754,-75843.454302
2264.473961,4145.153275,3108.864956,-75537.016103
2264.476517,-592.164754,1036.288319,-77528.864398
2264.479073,-2664.741391,3997.112087,-77222.426198
2264.481630,-14804.118840,2812.782580,-75690.235202
2264.484186,-24278.754898,4885.359217,-75077.358804
2264.486742,-15100.201217,6809.894666,-70480.785816
2264.489298,5033.400406,-1628.453072,-77222.426198
2264.491854,-6365.771101,6217.729913,-75383.797003
2264.494411,444.123565,7105.977043,-75230.577904
2264.496967,-16284.530724,-1628.453072,-75230.577904
2264.499523,-11251.130318,-1628.453072,-73545.167808
2264.502079,11695.253884,8438.347739,-74311.263306
2264.504635,13175.665768,-148.041188,-80593.246390
2264.507191,12287.418637,6809.894666,-75690.235202
2264.509748,-7846.182985,3849.070898,-75690.235202
2264.512304,-6661.853478,-1480.411884,-75537.016103
2264.514860,888.247130,3256.906145,-75996.673402
2264.517416,8290.306550,3849.070898,-76303.111601
2264.519972,5477.523971,2516.700203,-75537.016103
2264.522529,-3997.112087,4885.359217,-76149.892501
2264.525085,1924.535449,3701.029710,-76303.111601
2264.527641,-4589.276840,0.000000,-73545.167808
2264.530197,4737.318029,5329.482782,-70634.004916
2264.532753,21317.931130,592.164754,-79214.274493
2264.535309,9770.718434,-3256.906145,-81359.341888
2264.537866,2960.823768,8142.265362,-77528.864398
2264.540422,-7105.977043,4737.318029,-74924.139704
2264.542983,-3701.029710,-5181.441594,-76915.987999
2264.545544,5773.606348,12435.459826,-76915.987999
2264.548106,-5921.647536,-1480.411884,-78907.836294
2264.550667,-11843.295072,4145.153275,-70940.443115
2264.553228,-13323.706956,4145.153275,-73238.729609
2264.555790,-13471.748144,888.247130,-76149.892501
2264.558351,-148.041188,5033.400406,-73698.386908
2264.560912,-5033.400406,8586.388927,-71400.100414
2264.563474,-11547.212695,4293.194464,-73698.386908
2264.566035,-3404.947333,2220.617826,-75383.797003
2264.568596,-13323.706956,2516.700203,-70480.785816
2264.571158,888.247130,5477.523971,-74924.139704
2264.573719,-6365.771101,3256.906145,-71859.757712
2264.576280,-4293.194464,4885.359217,-72472.634111
2264.578841,-21317.931130,-1184.329507,-74924.139704
2264.581403,-19097.313304,8290.306550,-69408.252119
2264.583964,-5477.523971,2516.700203,-77528.864398
2264.586525,6957.935855,-1924.535449,-76609.549800
2264.589087,-14804.118840,6365.771101,-74617.701505
2264.591648,2072.576638,5921.647536,-80593.246390
2264.594209,-23094.425390,-2368.659014,-74770.920605
2264.596771,12139.377449,3997.112087,-74311.263306
2264.599332,13027.624579,-1332.370696,-82278.656485
2264.601893,10955.047942,4589.276840,-77222.426198
2264.604455,148.041188,6809.894666,-74770.920605
2264.607016,-1628.453072,-3404.947333,-75690.235202
2264.609577,-7550.100608,6661.853478,-69714.690318
2264.612138,5329.482782,1332.370696,-77069.207099
2264.614700,4145.153275,8882.471304,-72779.072310
2264.617261,11547.212695,5773.606348,-75230.577904
2264.619822,-592.164754,1036.288319,-74770.920605
2264.622384,-11991.336260,4145.153275,-75077.358804
2264.624945,12879.583391,6217.729913,-75537.016103
2264.627506,12583.501014,-592.164754,-75230.577904
2264.630068,1332.370696,3404.947333,-72012.976812
2264.632629,7994.224174,5033.400406,-76303.111601
2264.635190,11547.212695,7105.977043,-78448.178995
2264.637752,-13471.748144,-2960.823768,-74924.139704
2264.640313,5773.606348,4441.235652,-75077.358804
2264.642874,-20429.683999,3404.947333,-76149.892501
2264.645440,5033.400406,8142.265362,-73085.510509
2264.648005,-24870.919651,3997.112087,-75230.577904
2264.650571,-9918.759623,1184.329507,-74617.701505
2264.653137,-7254.018232,3701.029710,-70940.443115
2264.655702,-1332.370696,2368.659014,-80133.589091
2264.658268,-9474.636058,7402.059420,-75843.454302
2264.660833,-8290.306550,4589.276840,-73545.167808
2264.663399,-29312.155303,-1776.494261,-74924.139704
2264.665965,6069.688724,3404.947333,-75537.016103
2264.668530,-7550.100608,4589.276840,-75996.673402
2264.671096,-9030.512492,6661.853478,-76609.549800
2264.673661,-16284.530724,444.123565,-74770.920605
2264.676227,-15692.365970,3256.906145,-72012.976812
2264.678792,-5773.606348,4145.153275,-77069.207099
2264.681358,7550.100608,-1036.288319,-78907.836294
2264.683924,-14656.077652,3108.864956,-77682.083497
2264.686489,-1924.535449,7846.182985,-74924.139704
2264.689055,-19541.436869,-5921.647536,-77528.864398
2264.691620,12731.542202,9030.512492,-74924.139704
2264.694186,9770.718434,-444.123565,-79520.712692
2264.696752,12139.377449,4589.276840,-74158.044206
2264.699317,6661.853478,8142.265362,-73851.606007
2264.701883,-4737.318029,444.123565,-76609.549800
2264.704448,-8290.306550,4441.235652,-71400.100414
2264.707014,7994.224174,-592.164754,-75537.016103
2264.709580,3256.906145,6957.935855,-72012.976812
2264.712145,-1776.494261,4145.153275,-75690.235202
2264.714711,2368.659014,4737.318029,-74924.139704
2264.717276,-6217.729913,3849.070898,-74924.139704
2264.719842,1776.494261,-2664.741391,-76915.987999
2264.722408,15100.201217,5625.565159,-76456.330700
2264.724973,2516.700203,3701.029710,-79520.712692
2264.727542,14952.160028,-4441.235652,-82891.532884
2264.730110,-8882.471304,14656.077652,-69867.909418
2264.732678,-1184.329507,-5773.606348,-78907.836294
2264.735247,7402.059420,4885.359217,-78294.959896
2264.737815,-13915.871710,4441.235652,-73698.386908
2264.740384,-1332.370696,2072.576638,-72166.195912
2264.742952,-22354.219448,8438.347739,-73698.386908
2264.745520,-4589.276840,1628.453072,-77069.207099
2264.748089,-5921.647536,1628.453072,-75690.235202
2264.750657,-2368.659014,7550.100608,-74770.920605
2264.753226,-5625.565159,2812.782580,-76609.549800
2264.755794,-11843.295072,5033.400406,-75690.235202
2264.758363,-14211.954086,1924.535449,-78141.740796
2264.760931,0.000000,444.123565,-77835.302597
2264.763499,-7105.977043,2072.576638,-77682.083497
2264.766068,148.041188,5625.565159,-77835.302597
2264.768636,-19985.560434,1332.370696,-77835.302597
2264.771205,-29608.237680,4293.194464,-69255.033019
2264.773773,444.123565,4737.318029,-71553.319513
2264.776342,-592.164754,1332.370696,-74311.263306
2264.778910,-7846.182985,888.247130,-79061.055394
2264.781478,-10214.842000,4441.235652,-79673.931792
2264.784047,-18801.230927,-7402.059420,-80286.808190
2264.786615,15692.365970,8290.306550,-74311.263306
2264.789184,11695.253884,-4293.194464,-82585.094684
2264.791752,12139.377449,8142.265362,-74004.825107
2264.794321,2516.700203,3404.947333,-77528.864398
2264.796889,-3701.029710,0.000000,-77375.645298
2264.799457,-2664.741391,4145.153275,-72012.976812
2264.802026,1924.535449,-148.041188,-76456.330700
2264.804594,-888.247130,10362.883188,-68642.156621
2264.807163,14211.954086,3701.029710,-73851.606007
2264.809731,-14359.995275,3997.112087,-76303.111601
2264.812299,1924.535449,5477.523971,-75077.358804
2264.814868,7698.141797,2368.659014,-76456.330700
2264.817436,16284.530724,1924.535449,-78448.178995
2264.820005,6809.894666,592.164754,-77222.426198
2264.822573,3404.947333,7254.018232,-77682.083497
2264.825142,-4589.276840,4145.153275,-76456.330700
2264.827710,-5181.441594,-2960.823768,-72319.415011
2264.830281,7846.182985,10955.047942,-76609.549800
2264.832852,-10510.924376,-1776.494261,-81052.903688
2264.835422,-8142.265362,5625.565159,-73391.948708
2264.837993,-16432.571912,7105.977043,-73391.948708
2264.840564,-13471.748144,-3108.864956,-76149.892501
2264.843135,-2220.617826,3108.864956,-77222.426198
2264.845706,-1332.370696,9474.636058,-73391.948708
2264.848276,-5181.441594,2220.617826,-75996.673402
2264.850847,-22058.137072,2368.659014,-73545.167808
2264.853418,-6217.729913,6513.812290,-71859.757712
2264.855989,3849.070898,1924.535449,-78448.178995
2264.858559,-2220.617826,4589.276840,-74464.482406
2264.861130,-6365.771101,1776.494261,-73545.167808
2264.863701,-19837.519246,7402.059420,-76149.892501
2264.866272,-19245.354492,5181.441594,-74770.920605
2264.868843,2516.700203,-1480.411884,-75077.358804
2264.871413,-11843.295072,4737.318029,-70327.566716
2264.873984,-1480.411884,7105.977043,-73545.167808
2264.876555,-9770.718434,1776.494261,-77988.521696
2264.879126,-12435.459826,296.082377,-74924.139704
2264.881697,12583.501014,12287.418637,-68948.594820
2264.884267,11843.295072,-1332.370696,-75230.577904
2264.886838,11103.089130,9030.512492,-75690.235202
2264.889409,5329.482782,5773.606348,-77988.521696
2264.891980,-9918.759623,-444.123565,-75383.797003
2264.894551,4441.235652,3849.070898,-71553.319513
2264.897121,7994.224174,1184.329507,-77835.302597
2264.899692,6661.853478,2960.823768,-79367.493593
2264.902263,5625.565159,6957.935855,-75537.016103
2264.904834,-5329.482782,3849.070898,-72012.976812
2264.907405,8290.306550,2664.741391,-72625.853210
2264.909975,13175.665768,6217.729913,-70174.347617
2264.912546,9770.718434,740.205942,-72472.634111
2264.915117,11695.253884,9770.718434,-70021.128517
2264.917688,7698.141797,10807.006753,-70940.443115
2264.920258,-9770.718434,-4885.359217,-76456.330700
2264.922829,7402.059420,2368.659014,-80440.027290
2264.925400,-15248.242405,-148.041188,-76762.768900
2264.927971,2516.700203,6809.894666,-68335.718422
2264.930542,-23686.590144,4737.318029,-75077.358804
2264.933112,-8142.265362,-148.041188,-76915.987999
2264.935684,-12287.418637,4885.359217,-70174.347617
2264.938256,296.082377,3701.029710,-73851.606007
2264.940828,1036.288319,3552.988522,-76303.111601
2264.943400,-10510.924376,6661.853478,-75077.358804
2264.945972,-16728.654289,148.041188,-76456.330700
2264.948544,-1628.453072,2812.782580,-73545.167808
2264.951117,-6513.812290,1924.535449,-73851.606007
2264.953689,-4737.318029,3552.988522,-75230.577904
2264.956261,-25611.125593,7550.100608,-73085.510509
2264.958833,-5329.482782,4885.359217,-80286.808190
2264.961405,-14359.995275,2220.617826,-72319.415011
2264.963977,-8142.265362,-296.082377,-75537.016103
2264.966549,8734.430116,7846.182985,-77988.521696
2264.969121,-15692.365970,2960.823768,-75077.358804
2264.971693,-10214.842000,-3108.864956,-74311.263306
2264.974265,6513.812290,11399.171507,-70480.785816
2264.976838,15248.242405,-592.164754,-79673.931792
2264.979410,9918.759623,9178.553681,-71400.100414
2264.981982,3849.070898,7698.141797,-71859.757712
2264.984554,-1332.370696,888.247130,-76762.768900
2264.987126,-1184.329507,3997.112087,-73545.167808
2264.989698,2072.576638,1332.370696,-76762.768900
2264.992270,3552.988522,4293.194464,-75383.797003
2264.994842,5773.606348,2516.700203,-75383.797003
2264.997414,-7698.141797,2220.617826,-75383.797003
2264.999986,3552.988522,5625.565159,-76303.111601
2265.002559,12583.501014,1332.370696,-77222.426198
2265.005131,-2812.782580,2664.741391,-69255.033019
2265.007703,18949.272115,4441.235652,-73851.606007
2265.010275,5773.606348,11399.171507,-75230.577904
2265.012847,-13619.789333,-5477.523971,-77988.521696
2265.015419,6957.935855,9178.553681,-70327.566716
2265.017991,-15988.448347,740.205942,-73545.167808
2265.020563,4737.318029,3997.112087,-74311.263306
2265.023135,-20281.642811,7698.141797,-75690.235202
2265.025707,-11251.130318,-1480.411884,-76609.549800
2265.028280,-10510.924376,-1036.288319,-74464.482406
2265.030852,-3256.906145,3552.988522,-75843.454302
2265.033424,-2664.741391,6513.812290,-77222.426198
2265.035997,-11991.336260,2960.823768,-72779.072310
2265.038570,-14804.118840,2072.576638,-75230.577904
2265.041143,4589.276840,4293.194464,-72932.291410
2265.043717,-16580.613101,3701.029710,-73391.948708
2265.046290,-740.205942,1332.370696,-76149.892501
2265.048863,-21910.095883,4589.276840,-74770.920605
2265.051436,-13619.789333,7846.182985,-76149.892501
2265.054009,-9918.759623,-2368.659014,-77222.426198
2265.056583,-9918.759623,2220.617826,-75230.577904
2265.059156,5773.606348,7550.100608,-75077.358804
2265.061729,-7994.224174,-2960.823768,-75383.797003
2265.064302,-592.164754,1184.329507,-76303.111601
