#time,accel_x,accel_y,accel_z
11416.640053,-444.123565,1036.288319,-85955.914876
11416.643677,-444.123565,-2072.576638,-80593.246390
11416.647301,-8882.471304,-5625.565159,-74004.825107
11416.650925,1036.288319,8438.347739,-67109.965625
11416.654549,7402.059420,14359.995275,-64198.802732
11416.658173,-6957.935855,-1184.329507,-81818.999186
11416.661798,-4885.359217,15988.448347,-80746.465489
11416.665422,-2368.659014,12879.583391,-78601.398095
11416.669046,-2812.782580,-148.041188,-91318.583362
11416.672670,-3108.864956,4441.235652,-87028.448573
11416.676294,-3256.906145,10955.047942,-87641.324971
11416.679918,-4441.235652,10362.883188,-74617.701505
11416.683542,1184.329507,15840.407159,-62360.173537
11416.687166,-2812.782580,8586.388927,-69101.813920
11416.690763,-1480.411884,740.205942,-82125.437386
11416.694360,296.082377,11695.253884,-72319.415011
11416.697956,-2072.576638,5921.647536,-64505.240932
11416.701553,2516.700203,14211.954086,-75230.577904
11416.705149,-4589.276840,3404.947333,-87794.544071
11416.708746,-1776.494261,7550.100608,-101584.263035
11416.712343,-6661.853478,3552.988522,-83044.751983
11416.715939,3108.864956,16728.654289,-55465.314055
11416.719536,-1036.288319,15396.283594,-58836.134246
11416.723132,-6217.729913,17912.983796,-69714.690318
11416.726729,-444.123565,11399.171507,-85189.819378
11416.730325,-2516.700203,5181.441594,-86568.791274
11416.733922,-1924.535449,7254.018232,-59142.572446
11416.737519,3849.070898,17468.860231,-53320.246661
11416.741115,-2072.576638,8142.265362,-71093.662214
11416.744712,-1036.288319,4885.359217,-96834.470947
11416.748308,2220.617826,9474.636058,-85189.819378
11416.751905,-7994.224174,9622.677246,-56691.066852
11416.755502,-1776.494261,10214.842000,-56231.409553
11416.759098,-4885.359217,1036.288319,-76609.549800
11416.762695,-5625.565159,-12287.418637,-96681.251848
11416.766291,-740.205942,12139.377449,-88560.639569
11416.769888,1184.329507,8290.306550,-75537.016103
11416.773485,-2664.741391,10362.883188,-79673.931792
11416.777081,-1628.453072,-7994.224174,-96221.594549
11416.780678,-9326.594869,-8734.430116,-83351.190182
11416.784274,-592.164754,-4145.153275,-88560.639569
11416.787871,-5033.400406,6217.729913,-51788.055665
11416.791467,-7254.018232,9178.553681,-55924.971354
11416.795064,-2812.782580,3701.029710,-82585.094684
11416.798661,1924.535449,444.123565,-89020.296868
11416.802257,444.123565,3997.112087,-81818.999186
11416.805831,-4737.318029,2072.576638,-81206.122788
11416.809393,7698.141797,10510.924376,-70327.566716
11416.812955,-2220.617826,8290.306550,-76762.768900
11416.816517,-740.205942,2220.617826,-80133.589091
11416.820079,-2664.741391,-592.164754,-74924.139704
11416.823640,-5033.400406,2812.782580,-87334.886772
11416.827202,-5033.400406,1628.453072,-69867.909418
11416.830764,-3108.864956,1036.288319,-55924.971354
11416.834326,-9030.512492,1036.288319,-66497.089226
11416.837888,-3256.906145,3256.906145,-86415.572174
11416.841450,-740.205942,-3552.988522,-82891.532884
11416.845012,-4885.359217,5181.441594,-84270.504780
11416.848574,-148.041188,6661.853478,-68182.499322
11416.852135,-6513.812290,-2368.659014,-61900.516238
11416.855697,444.123565,296.082377,-59755.448844
11416.859259,0.000000,-10510.924376,-62053.735338
11416.862821,-4145.153275,17616.901420,-53013.808462
11416.866383,-1776.494261,16728.654289,-58836.134246
11416.869945,2960.823768,11547.212695,-81512.560987
11416.873507,-2220.617826,11251.130318,-96681.251848
11416.877069,-3701.029710,6513.812290,-91165.364262
11416.880631,3849.070898,8882.471304,-73545.167808
11416.884192,-3701.029710,6957.935855,-76915.987999
11416.887754,-6957.935855,-2812.782580,-83657.628382
11416.891316,-4441.235652,9326.594869,-80133.589091
11416.894878,-1776.494261,7698.141797,-62360.173537
11416.898440,-4441.235652,6365.771101,-62666.611736
11416.902002,-9474.636058,9030.512492,-73851.606007
11416.905564,-148.041188,6661.853478,-90246.049664
11416.909126,-3701.029710,12435.459826,-86415.572174
11416.912687,-740.205942,5181.441594,-80133.589091
11416.916249,-2220.617826,5033.400406,-68335.718422
11416.919589,-4145.153275,9770.718434,-64811.679131
11416.922928,-2960.823768,10955.047942,-65424.555529
11416.926268,1480.411884,9918.759623,-74004.825107
11416.929607,1776.494261,7550.100608,-71400.100414
11416.932947,-4885.359217,7105.977043,-80133.589091
11416.936286,-5625.565159,8142.265362,-77528.864398
11416.939626,3701.029710,15988.448347,-64658.460031
11416.942965,-6513.812290,7698.141797,-66190.651027
11416.946305,-6957.935855,1036.288319,-80593.246390
11416.949645,1184.329507,11991.336260,-85343.038477
11416.952984,888.247130,-4737.318029,-84270.504780
11416.956324,-7105.977043,8734.430116,-65884.212828
11416.959663,4737.318029,13027.624579,-53779.903960
11416.963003,-7105.977043,6957.935855,-54086.342159
11416.966342,-2664.741391,148.041188,-75077.358804
11416.969682,1332.370696,3849.070898,-72472.634111
11416.973021,-10214.842000,-7254.018232,-85496.257577
11416.976361,-2072.576638,11399.171507,-69101.813920
11416.979700,5921.647536,5477.523971,-67416.403824
11416.983040,148.041188,9030.512492,-77375.645298
11416.986379,2960.823768,-5773.606348,-100511.729338
11416.989719,1628.453072,-1480.411884,-93616.869856
11416.993058,-2220.617826,1332.370696,-77528.864398
11416.996398,-3701.029710,3701.029710,-53933.123059
11416.999737,-5477.523971,1480.411884,-58682.915147
11417.003077,-7994.224174,2368.659014,-80440.027290
11417.006416,1184.329507,0.000000,-91931.459760
11417.009756,-8586.388927,-592.164754,-88713.858668
11417.013096,-5625.565159,5773.606348,-88254.201370
11417.016435,2812.782580,18209.066173,-77988.521696
11417.019775,-3997.112087,5477.523971,-83657.628382
11417.023114,-6069.688724,5477.523971,-94382.965354
11417.026478,-4589.276840,-3701.029710,-80899.684589
11417.029843,-148.041188,148.041188,-80746.465489
11417.033207,-5773.606348,6069.688724,-65271.336430
11417.036571,-5329.482782,3108.864956,-71553.319513
11417.039936,-4589.276840,-2368.659014,-91471.802461
11417.043300,-5181.441594,-5773.606348,-83964.066581
11417.046664,-4293.194464,5477.523971,-81512.560987
11417.050029,-740.205942,11547.212695,-60981.201641
11417.053393,-2072.576638,-2220.617826,-74924.139704
11417.056757,-1776.494261,-1332.370696,-89633.173266
11417.060122,-6957.935855,-11843.295072,-76456.330700
11417.063486,-1332.370696,10807.006753,-36159.707506
11417.066850,-4293.194464,27091.537477,-38457.994000
11417.070215,-5625.565159,11251.130318,-61594.078039
11417.073579,-2664.741391,12731.542202,-91165.364262
11417.076943,-4441.235652,-296.082377,-81359.341888
11417.080308,-444.123565,19541.436869,-43973.881585
11417.083672,4441.235652,13767.830521,-64505.240932
11417.087036,8882.471304,4885.359217,-78601.398095
11417.090401,-148.041188,2220.617826,-110317.751712
11417.093765,740.205942,12139.377449,-74617.701505
11417.097129,-7550.100608,21169.889941,-32942.106414
11417.100494,-1036.288319,14952.160028,-60827.982541
11417.103858,-7698.141797,-5181.441594,-109398.437114
11417.107233,-2812.782580,3404.947333,-113075.695505
11417.110608,-4145.153275,9030.512492,-94689.403553
11417.113982,-1776.494261,10214.842000,-65730.993728
11417.117357,-1628.453072,9622.677246,-65424.555529
11417.120732,-9770.718434,-1480.411884,-86415.572174
11417.124106,-2516.700203,-6365.771101,-96528.032748
11417.127481,-4293.194464,13619.789333,-93157.212557
11417.130856,-592.164754,24870.919651,-69867.909418
11417.134231,-1480.411884,15692.365970,-64045.583633
11417.137605,-8586.388927,3849.070898,-79520.712692
11417.140980,-4589.276840,-444.123565,-89020.296868
11417.144355,0.000000,8882.471304,-88867.077768
11417.147729,-5329.482782,7105.977043,-76303.111601
11417.151104,6809.894666,17172.777854,-69101.813920
11417.154479,-5181.441594,-2960.823768,-84576.942979
11417.157854,-5033.400406,7994.224174,-82125.437386
11417.161228,592.164754,-888.247130,-73085.510509
11417.164603,-4737.318029,13471.748144,-68795.375720
11417.167978,-2368.659014,4145.153275,-64658.460031
11417.171352,-9178.553681,1332.370696,-75077.358804
11417.174727,-1332.370696,-6809.894666,-75537.016103
11417.178102,1924.535449,5921.647536,-64964.898230
11417.181477,-3552.988522,4293.194464,-78907.836294
11417.184851,5625.565159,7105.977043,-98213.442844
11417.188226,740.205942,-444.123565,-101431.043935
11417.191601,2368.659014,-7698.141797,-94076.527154
11417.194975,-7550.100608,1776.494261,-62973.049936
11417.198350,1332.370696,11251.130318,-55158.875856
11417.201725,-592.164754,2220.617826,-74617.701505
11417.205099,-15100.201217,5033.400406,-77835.302597
11417.208474,-2664.741391,11251.130318,-86262.353075
11417.211849,592.164754,5477.523971,-91012.145162
11417.215225,1184.329507,5181.441594,-94995.841752
11417.218602,-2812.782580,2960.823768,-94076.527154
11417.221978,-1036.288319,1036.288319,-68182.499322
11417.225355,-5329.482782,4589.276840,-63432.707234
11417.228731,-888.247130,5625.565159,-63279.488135
11417.232108,1480.411884,-3552.988522,-78754.617194
11417.235484,-7846.182985,-10066.800811,-84423.723880
11417.238861,2368.659014,7105.977043,-73698.386908
11417.242237,-3701.029710,10955.047942,-68335.718422
11417.245614,1924.535449,13027.624579,-66190.651027
11417.248990,-1628.453072,-4885.359217,-94076.527154
11417.252366,-5033.400406,-4145.153275,-102350.358533
11417.255743,-11695.253884,1036.288319,-90092.830565
11417.259119,-9622.677246,20281.642811,-61134.420740
11417.262496,-6957.935855,6513.812290,-68795.375720
11417.265872,-9178.553681,21465.972318,-72472.634111
11417.269249,1924.535449,-2220.617826,-82891.532884
11417.272625,-14063.912898,6661.853478,-68795.375720
11417.276002,-1628.453072,8142.265362,-64964.898230
11417.279378,3108.864956,1776.494261,-70021.128517
11417.282755,1036.288319,14211.954086,-75996.673402
11417.286131,-4145.153275,13175.665768,-75077.358804
11417.289508,0.000000,10214.842000,-68795.375720
11417.292884,-2812.782580,8142.265362,-62513.392637
11417.296261,-7254.018232,11843.295072,-67109.965625
11417.299637,3108.864956,6069.688724,-80593.246390
11417.303013,1184.329507,3701.029710,-67722.842023
11417.306390,-740.205942,4589.276840,-59295.791545
11417.309766,-888.247130,-9770.718434,-52400.932063
11417.313143,-1184.329507,8734.430116,-54086.342159
11417.316519,-1924.535449,3552.988522,-76762.768900
11417.319896,1924.535449,13323.706956,-92697.555258
11417.323268,-3997.112087,11399.171507,-82891.532884
11417.326641,10066.800811,7550.100608,-80133.589091
11417.330014,-10362.883188,6513.812290,-77682.083497
11417.333386,-5625.565159,6365.771101,-75383.797003
11417.336759,-5921.647536,-1332.370696,-71246.881314
11417.340132,2220.617826,21317.931130,-69408.252119
11417.343504,-5181.441594,14063.912898,-68642.156621
11417.346877,-8438.347739,10658.965565,-88100.982270
11417.350250,12731.542202,-444.123565,-113535.352804
11417.353622,-12435.459826,-1776.494261,-93923.308055
11417.356995,-148.041188,7698.141797,-64658.460031
11417.360368,-6069.688724,1924.535449,-49183.330972
11417.363740,-6513.812290,296.082377,-56231.409553
11417.367113,-5773.606348,740.205942,-59602.229744
11417.370485,-9918.759623,7550.100608,-59295.791545
11417.373858,-2516.700203,11695.253884,-69714.690318
11417.377231,11695.253884,2220.617826,-85036.600278
11417.380603,-592.164754,-3108.864956,-88867.077768
11417.383976,-2516.700203,2220.617826,-89326.735067
11417.387349,-444.123565,3404.947333,-81665.780087
11417.390721,-6069.688724,11695.253884,-64811.679131
11417.394094,2072.576638,9770.718434,-67876.061123
11417.397467,-3701.029710,-3404.947333,-81052.903688
11417.400839,-1480.411884,4885.359217,-82278.656485
11417.404212,-1480.411884,7550.100608,-69561.471218
11417.407585,-5181.441594,-7846.182985,-75843.454302
11417.410957,-4737.318029,-1628.453072,-76456.330700
11417.414330,-2960.823768,2960.823768,-73545.167808
11417.417703,-2368.659014,1776.494261,-70327.566716
11417.421075,-3997.112087,-1776.494261,-74004.825107
11417.424448,3552.988522,7550.100608,-76303.111601
11417.427820,-8882.471304,-148.041188,-76915.987999
11417.431186,-1924.535449,15396.283594,-69255.033019
11417.434551,-3404.947333,1924.535449,-68029.280222
11417.437917,2072.576638,592.164754,-84117.285680
11417.441282,-2664.741391,-1480.411884,-91318.583362
11417.444648,-740.205942,7105.977043,-87947.763170
11417.448013,-1628.453072,3701.029710,-77528.864398
11417.451379,-296.082377,24722.878463,-50102.645569
11417.454744,-1036.288319,2220.617826,-75996.673402
11417.458110,-4737.318029,5773.606348,-90246.049664
11417.461475,-3849.070898,-3404.947333,-89479.954166
11417.464841,-3997.112087,5773.606348,-73238.729609
11417.468206,-8586.388927,21465.972318,-65118.117330
11417.471572,-1776.494261,15988.448347,-86875.229473
11417.474937,592.164754,-1924.535449,-98826.319242
11417.478302,-5181.441594,7994.224174,-70174.347617
11417.481668,-2220.617826,13027.624579,-63892.364533
11417.485033,-888.247130,5625.565159,-58836.134246
11417.488399,-3849.070898,8290.306550,-76456.330700
11417.491764,-3404.947333,9326.594869,-78141.740796
11417.495130,2664.741391,12879.583391,-75077.358804
11417.498495,2072.576638,14063.912898,-65271.336430
11417.501861,-8290.306550,6957.935855,-76149.892501
11417.505226,-3256.906145,6365.771101,-81512.560987
11417.508592,-5625.565159,10362.883188,-71246.881314
11417.511957,-444.123565,15396.283594,-66190.651027
11417.515323,-3404.947333,8438.347739,-77375.645298
11417.518688,-7254.018232,-444.123565,-74004.825107
11417.522053,1332.370696,10066.800811,-69867.909418
11417.525419,-7846.182985,11103.089130,-64352.021832
11417.528784,1628.453072,22058.137072,-65271.336430
11417.532150,7846.182985,3108.864956,-97753.785545
11417.535515,-8734.430116,5921.647536,-93923.308055
11417.538872,-3701.029710,5329.482782,-76303.111601
11417.542228,-2960.823768,-4589.276840,-68182.499322
11417.545584,-3997.112087,-6365.771101,-68182.499322
11417.548941,-9178.553681,4589.276840,-68642.156621
11417.552297,-4145.153275,4441.235652,-75690.235202
11417.555654,-3849.070898,9326.594869,-89020.296868
11417.559010,-3552.988522,3552.988522,-86262.353075
11417.562366,-1480.411884,-10955.047942,-95608.718150
11417.565723,-6069.688724,-2516.700203,-70787.224015
11417.569079,-444.123565,7254.018232,-52247.712964
11417.572435,-1332.370696,7550.100608,-65118.117330
11417.575792,-8586.388927,-296.082377,-70634.004916
11417.579148,-1776.494261,-3552.988522,-77835.302597
11417.582504,-2812.782580,3108.864956,-68948.594820
11417.585861,-4441.235652,11991.336260,-58223.257848
11417.589217,4737.318029,-296.082377,-77835.302597
11417.592574,-7846.182985,-7550.100608,-88560.639569
11417.595930,-6957.935855,-4885.359217,-84270.504780
11417.599286,1184.329507,-2960.823768,-65884.212828
11417.602643,-6365.771101,9030.512492,-57303.943250
11417.605999,592.164754,9622.677246,-66956.746525
11417.609355,9474.636058,4737.318029,-86262.353075
11417.612712,-3108.864956,-740.205942,-99439.195640
11417.616068,-3404.947333,-7254.018232,-83044.751983
11417.619424,444.123565,-3849.070898,-87947.763170
11417.622781,-1332.370696,18949.272115,-64964.898230
11417.626137,-1776.494261,11103.089130,-69867.909418
11417.629494,-6069.688724,18653.189738,-83810.847481
11417.632850,-12583.501014,4441.235652,-91931.459760
11417.636206,-7254.018232,10362.883188,-77375.645298
11417.639563,296.082377,5033.400406,-78448.178995
11417.642919,-7402.059420,-1628.453072,-84117.285680
11417.646265,-3404.947333,10066.800811,-86568.791274
11417.649612,-1480.411884,18209.066173,-71706.538613
11417.652958,-1332.370696,19097.313304,-72625.853210
11417.656304,-1480.411884,7698.141797,-62666.611736
11417.659650,-4441.235652,2220.617826,-68488.937521
11417.662997,-2664.741391,10955.047942,-75843.454302
11417.666343,-2960.823768,13619.789333,-81359.341888
11417.669689,-444.123565,6809.894666,-108172.684318
11417.673036,740.205942,8142.265362,-106946.931521
11417.676382,7402.059420,-740.205942,-103116.454031
11417.679728,-2072.576638,1036.288319,-65271.336430
11417.683075,-17616.901420,13915.871710,-42441.690589
11417.686421,-3701.029710,10214.842000,-74158.044206
11417.689767,-8586.388927,11251.130318,-104495.425927
11417.693113,-6957.935855,5921.647536,-97600.566445
11417.696460,4145.153275,8438.347739,-86415.572174
11417.699806,-592.164754,-2072.576638,-81818.999186
11417.703152,-3552.988522,14508.036463,-68795.375720
11417.706499,-444.123565,-1776.494261,-68029.280222
11417.709845,-5181.441594,14063.912898,-48723.673673
11417.713191,-148.041188,3701.029710,-65884.212828
11417.716538,-3849.070898,12139.377449,-64045.583633
11417.719884,-888.247130,-3997.112087,-89939.611465
11417.723230,3701.029710,444.123565,-96068.375449
11417.726576,-1332.370696,-3997.112087,-92391.117059
11417.729923,-8882.471304,5329.482782,-66803.527426
11417.733269,-5477.523971,12731.542202,-72166.195912
11417.736615,2220.617826,3108.864956,-64045.583633
11417.739962,-13027.624579,-5773.606348,-63126.269035
11417.743308,3108.864956,1332.370696,-68642.156621
11417.746654,-3997.112087,2960.823768,-85036.600278
11417.750000,-6069.688724,9030.512492,-92084.678860
11417.753235,1480.411884,11103.089130,-75996.673402
11417.756469,5921.647536,5625.565159,-81818.999186
11417.759704,-5329.482782,8142.265362,-74004.825107
11417.762938,-296.082377,9770.718434,-71553.319513
11417.766173,2516.700203,-4589.276840,-79980.369991
11417.769407,-1628.453072,-5625.565159,-70634.004916
11417.772642,-1776.494261,1776.494261,-74464.482406
11417.775876,-444.123565,2516.700203,-82278.656485
11417.779111,-3552.988522,-3552.988522,-84270.504780
11417.782345,-8586.388927,10510.924376,-71400.100414
11417.785580,-4145.153275,-4293.194464,-67569.622924
11417.788814,-1184.329507,15396.283594,-57457.162350
11417.792048,-2368.659014,-9918.759623,-99132.757441
11417.795283,-5773.606348,4737.318029,-100205.291138
11417.798517,-3849.070898,11251.130318,-74158.044206
11417.801752,5329.482782,21169.889941,-56231.409553
11417.804986,-5181.441594,5181.441594,-69255.033019
11417.808221,3849.070898,6217.729913,-70787.224015
11417.811455,-5625.565159,-4293.194464,-71246.881314
11417.814690,-7846.182985,7550.100608,-65884.212828
11417.817924,-6217.729913,15692.365970,-70634.004916
11417.821159,-2812.782580,12139.377449,-90399.268764
11417.824393,-3849.070898,7698.141797,-83657.628382
11417.827627,-2220.617826,5329.482782,-82278.656485
11417.830862,2516.700203,9770.718434,-61900.516238
11417.834096,-9178.553681,9178.553681,-49796.207370
11417.837331,1628.453072,15248.242405,-60521.544342
11417.840565,-4145.153275,888.247130,-92084.678860
11417.843800,-7698.141797,5625.565159,-83351.190182
11417.847034,-1036.288319,3849.070898,-89479.954166
11417.850269,-1332.370696,5773.606348,-71859.757712
11417.853503,-1184.329507,17764.942608,-54392.780358
11417.856760,-3701.029710,18357.107362,-67416.403824
11417.860011,-2220.617826,2664.741391,-78754.617194
11417.863262,-592.164754,8586.388927,-64811.679131
11417.866513,-740.205942,-1924.535449,-72625.853210
11417.869764,-4737.318029,8438.347739,-78141.740796
11417.873015,-3404.947333,6661.853478,-78141.740796
11417.876265,5921.647536,9918.759623,-64811.679131
11417.879516,-10510.924376,-7402.059420,-85802.695776
11417.882767,-8438.347739,9622.677246,-70480.785816
11417.886018,6809.894666,-9178.553681,-72779.072310
11417.889269,-2072.576638,-1184.329507,-70634.004916
11417.892520,-148.041188,-888.247130,-81665.780087
11417.895771,-1628.453072,-296.082377,-79980.369991
11417.899021,-5773.606348,2220.617826,-83657.628382
11417.902272,-2812.782580,5477.523971,-61594.078039
11417.905523,3552.988522,-1776.494261,-58989.353346
11417.908774,-5625.565159,-4293.194464,-69714.690318
11417.912025,-444.123565,9622.677246,-82278.656485
11417.915276,-4737.318029,-2812.782580,-96528.032748
11417.918526,-3108.864956,4441.235652,-84117.285680
11417.921777,-2516.700203,9770.718434,-73545.167808
11417.925028,-5329.482782,-1628.453072,-81206.122788
11417.928279,-6513.812290,-2664.741391,-75383.797003
11417.931530,-148.041188,-6365.771101,-71400.100414
11417.960865,-3108.864956,8734.430116,-70174.347617
11417.964124,-2220.617826,20429.683999,-60674.763442
11417.967383,-7402.059420,8882.471304,-73085.510509
11417.970643,-5477.523971,9622.677246,-79827.150892
11417.973902,-3404.947333,6365.771101,-90399.268764
11417.977162,-3552.988522,3997.112087,-85496.257577
11417.980421,-4441.235652,6513.812290,-85802.695776
11417.983680,-3997.112087,17024.736666,-77375.645298
11417.986940,-2516.700203,16284.530724,-68795.375720
11417.990199,-1924.535449,1480.411884,-70787.224015
11417.993459,-1924.535449,14211.954086,-66650.308326
11417.996718,-2516.700203,10214.842000,-64045.583633
11417.999977,3108.864956,1332.370696,-74311.263306
11418.003237,-6069.688724,3701.029710,-83964.066581
11418.006496,-592.164754,1332.370696,-79367.493593
11418.009756,-1184.329507,11991.336260,-72472.634111
11418.013015,-5181.441594,17468.860231,-67416.403824
11418.016275,4145.153275,22502.260637,-66343.870127
11418.019534,-4737.318029,592.164754,-85955.914876
11418.022793,-6809.894666,-1480.411884,-81972.218286
11418.026053,-4441.235652,13767.830521,-64505.240932
11418.029312,-6217.729913,2072.576638,-77375.645298
11418.032572,-9918.759623,19245.354492,-77682.083497
11418.035831,3997.112087,10214.842000,-95302.279951
11418.039097,-3108.864956,3997.112087,-95761.937250
11418.042364,-6661.853478,5477.523971,-73238.729609
11418.045630,-3997.112087,-3849.070898,-65730.993728
11418.048896,-3849.070898,-5773.606348,-77069.207099
11418.052163,-6957.935855,9030.512492,-71706.538613
11418.055429,-8438.347739,7402.059420,-70021.128517
11418.058695,-4145.153275,8290.306550,-78294.959896
11418.061962,9622.677246,2960.823768,-84423.723880
11418.065228,-888.247130,-5625.565159,-91778.240660
11418.068494,-6661.853478,-6513.812290,-82891.532884
11418.071761,3404.947333,10510.924376,-70634.004916
11418.075027,-2220.617826,2220.617826,-79061.055394
11418.078293,-6069.688724,-740.205942,-70021.128517
11418.081560,-1480.411884,8438.347739,-57763.600549
11418.084826,-3108.864956,9178.553681,-68642.156621
11418.088092,-4293.194464,-1776.494261,-80746.465489
11418.091359,296.082377,-4145.153275,-82891.532884
11418.094625,-2220.617826,1184.329507,-72779.072310
11418.097891,-7846.182985,6365.771101,-71400.100414
11418.101158,-148.041188,-1332.370696,-72932.291410
11418.104424,-444.123565,6809.894666,-76762.768900
11418.107690,-3256.906145,-1184.329507,-76303.111601
11418.110957,-1332.370696,6957.935855,-70634.004916
11418.114223,-6513.812290,-740.205942,-89939.611465
11418.117489,-5477.523971,14359.995275,-86875.229473
11418.120756,-4885.359217,6069.688724,-81512.560987
11418.124022,3108.864956,18357.107362,-69867.909418
11418.127288,-3404.947333,10066.800811,-71859.757712
11418.130555,-1480.411884,10658.965565,-72779.072310
11418.133821,-14804.118840,5625.565159,-85036.600278
11418.137087,-5181.441594,4441.235652,-84423.723880
11418.140354,2960.823768,4885.359217,-88254.201370
11418.143624,-6217.729913,16284.530724,-94842.622652
11418.146895,-2664.741391,20133.601622,-77528.864398
11418.150166,-1036.288319,-296.082377,-69867.909418
11418.153436,-3256.906145,5033.400406,-61900.516238
11418.156707,1184.329507,9770.718434,-61594.078039
11418.159977,-296.082377,3997.112087,-63739.145434
11418.163248,-10658.965565,2072.576638,-65577.774629
11418.166518,-3997.112087,11991.336260,-70480.785816
11418.169789,-7846.182985,11547.212695,-76149.892501
11418.173060,-3552.988522,13027.624579,-75230.577904
11418.176330,-3701.029710,16580.613101,-77528.864398
11418.179601,-4885.359217,6957.935855,-79520.712692
11418.182871,2664.741391,8290.306550,-73851.606007
11418.186142,888.247130,-3701.029710,-79520.712692
11418.189412,-4441.235652,5921.647536,-79367.493593
11418.192683,-2812.782580,7846.182985,-72012.976812
11418.195954,2220.617826,15248.242405,-63279.488135
11418.199224,-3404.947333,-5181.441594,-75383.797003
11418.202495,-7846.182985,3256.906145,-75690.235202
11418.205765,2812.782580,-6069.688724,-72319.415011
11418.209036,-1628.453072,4737.318029,-70327.566716
11418.212306,1628.453072,3552.988522,-82585.094684
11418.215577,9326.594869,4145.153275,-83504.409282
11418.218848,-8290.306550,3404.947333,-82431.875585
11418.222118,0.000000,11843.295072,-67722.842023
11418.225389,1332.370696,444.123565,-66650.308326
11418.228659,-4293.194464,-7402.059420,-83504.409282
11418.231930,-1184.329507,8586.388927,-78448.178995
11418.235200,-2664.741391,1332.370696,-86722.010374
11418.238471,-1776.494261,-740.205942,-92697.555258
11418.241742,-2220.617826,4737.318029,-85955.914876
11418.245012,-5921.647536,-1480.411884,-72625.853210
11418.248285,-2960.823768,-7105.977043,-68948.594820
11418.251558,-2812.782580,5921.647536,-71553.319513
11418.254831,-10807.006753,2960.823768,-83504.409282
11418.258103,-4441.235652,-1036.288319,-87488.105872
11418.261376,-1480.411884,5625.565159,-76303.111601
11418.264649,-4885.359217,-5625.565159,-76149.892501
11418.267922,-1776.494261,12435.459826,-62360.173537
11418.271195,-1924.535449,1776.494261,-63279.488135
11418.274467,740.205942,11695.253884,-62819.830836
11418.277740,-444.123565,5329.482782,-76915.987999
11418.281013,2220.617826,17172.777854,-72472.634111
11418.284286,-888.247130,6217.729913,-74770.920605
11418.287559,-8882.471304,7254.018232,-70327.566716
11418.290831,444.123565,6809.894666,-64352.021832
11418.294104,-2960.823768,2812.782580,-71859.757712
11418.297377,-4293.194464,13471.748144,-83810.847481
11418.300650,1628.453072,16728.654289,-87028.448573
11418.303923,-3997.112087,9030.512492,-87181.667672
11418.307195,-4441.235652,-1628.453072,-88254.201370
11418.310468,-3997.112087,8142.265362,-70174.347617
11418.313741,-2516.700203,10362.883188,-68182.499322
11418.317014,-3256.906145,7254.018232,-71859.757712
11418.320287,-1184.329507,12731.542202,-84730.162079
11418.323559,-5033.400406,14211.954086,-94076.527154
11418.326832,2516.700203,16580.613101,-88560.639569
11418.330105,-3108.864956,7994.224174,-93463.650756
11418.333378,-6217.729913,6809.894666,-81512.560987
11418.336651,2072.576638,18949.272115,-65577.774629
11418.339923,3701.029710,1184.329507,-83504.409282
11418.343196,-6365.771101,-3404.947333,-89786.392366
11418.346469,-4145.153275,1924.535449,-87947.763170
11418.349742,-2220.617826,17468.860231,-49336.550071
11418.353015,-4145.153275,-1332.370696,-60215.106143
11418.356289,1924.535449,4293.194464,-84576.942979
11418.359562,-4885.359217,-16432.571912,-99745.633840
11418.362836,-3849.070898,2220.617826,-89020.296868
11418.366109,-3552.988522,7105.977043,-64352.021832
11418.369383,0.000000,5181.441594,-66956.746525
11418.372656,-3108.864956,-1332.370696,-79673.931792
11418.375930,-6661.853478,2960.823768,-70787.224015
11418.379204,-4737.318029,4293.194464,-65271.336430
11418.382477,-740.205942,-1776.494261,-68795.375720
11418.385751,-2368.659014,10510.924376,-66803.527426
11418.389024,-5329.482782,2664.741391,-79214.274493
11418.392298,-2664.741391,6957.935855,-72932.291410
11418.395571,1628.453072,1480.411884,-67722.842023
11418.398845,-6069.688724,-5477.523971,-68488.937521
11418.402118,-2664.741391,5033.400406,-65424.555529
11418.405392,1924.535449,7994.224174,-71093.662214
11418.408665,-4293.194464,-1776.494261,-79980.369991
11418.411939,1036.288319,1480.411884,-79980.369991
11418.415212,-1924.535449,4293.194464,-75843.454302
11418.418486,-2516.700203,-4885.359217,-82738.313784
11418.421759,888.247130,2960.823768,-70940.443115
11418.425033,1184.329507,4293.194464,-68948.594820
11418.428306,-7550.100608,7698.141797,-81665.780087
11418.431580,-4145.153275,18209.066173,-77835.302597
11418.434853,-6957.935855,12139.377449,-75690.235202
11418.438127,-2072.576638,6069.688724,-80899.684589
11418.441400,-5477.523971,7994.224174,-88100.982270
11418.444674,-7254.018232,2368.659014,-86109.133975
11418.447947,-5329.482782,3701.029710,-72625.853210
11418.451221,-1184.329507,21169.889941,-52860.589362
11418.454494,-3552.988522,17024.736666,-56691.066852
11418.457768,-3849.070898,9918.759623,-69255.033019
11418.461042,2516.700203,-296.082377,-69255.033019
11418.464316,-1628.453072,15692.365970,-68335.718422
11418.467590,1776.494261,8882.471304,-54392.780358
11418.470864,2664.741391,10362.883188,-67876.061123
11418.474138,-2812.782580,12435.459826,-66037.431928
11418.477412,888.247130,18061.024985,-89173.515967
11418.480686,3108.864956,9326.594869,-84117.285680
11418.483960,-3552.988522,10807.006753,-75843.454302
11418.487234,-3404.947333,10066.800811,-77222.426198
11418.490508,-3997.112087,3552.988522,-87181.667672
11418.493782,-11251.130318,5033.400406,-87181.667672
11418.497055,-10214.842000,740.205942,-88100.982270
11418.500329,-6365.771101,12731.542202,-64811.679131
11418.503603,-9178.553681,-7254.018232,-72319.415011
11418.506877,2220.617826,2812.782580,-74004.825107
11418.510151,-5329.482782,-10362.883188,-79673.931792
11418.513425,-1036.288319,-2516.700203,-81972.218286
11418.516699,-3997.112087,5625.565159,-74617.701505
11418.519973,888.247130,8882.471304,-63585.926334
11418.523247,1776.494261,5329.482782,-62053.735338
11418.526521,-3552.988522,6217.729913,-62360.173537
11418.529795,-5921.647536,-1628.453072,-77069.207099
11418.533069,1332.370696,-1776.494261,-73391.948708
11418.536343,2664.741391,9918.759623,-75537.016103
11418.539616,-8586.388927,148.041188,-82738.313784
11418.542890,-2664.741391,7402.059420,-79367.493593
11418.546164,-2664.741391,5625.565159,-77528.864398
11418.549438,-9030.512492,-3552.988522,-77988.521696
11418.552712,-7550.100608,-1332.370696,-72472.634111
11418.555986,2072.576638,7105.977043,-81665.780087
11418.559260,-7550.100608,-5033.400406,-90246.049664
11418.562459,-5921.647536,1776.494261,-80440.027290
11418.565658,-3701.029710,7105.977043,-56384.628653
11418.568857,-2220.617826,15100.201217,-57457.162350
11418.572056,-3552.988522,-5921.647536,-104035.768628
11418.575256,-7105.977043,6661.853478,-103422.892230
11418.578455,-4293.194464,10362.883188,-68335.718422
11418.581654,-1924.535449,33161.226202,-43207.786087
11418.584853,-4885.359217,5477.523971,-87181.667672
11418.588052,-10214.842000,6809.894666,-93003.993457
11418.591251,-2516.700203,5181.441594,-89020.296868
11418.594450,-6809.894666,9918.759623,-62819.830836
11418.597649,-592.164754,8586.388927,-81818.999186
11418.600849,-3108.864956,4589.276840,-92850.774358
11418.604048,-6513.812290,7105.977043,-88407.420469
11418.607247,-9622.677246,5181.441594,-51021.960167
11418.610446,3701.029710,12583.501014,-53779.903960
11418.613645,-7254.018232,-5181.441594,-87028.448573
11418.616844,-1480.411884,5033.400406,-70327.566716
11418.620043,592.164754,23094.425390,-34474.297410
11418.623242,-5033.400406,24278.754898,-37232.241203
11418.626442,-1776.494261,13027.624579,-69255.033019
11418.629641,-296.082377,-2368.659014,-93923.308055
11418.632840,-5625.565159,6365.771101,-65118.117330
11418.636039,6069.688724,18801.230927,-53473.465760
11418.639238,-1184.329507,8586.388927,-83351.190182
11418.642437,740.205942,6957.935855,-85955.914876
11418.645636,-5625.565159,2664.741391,-83197.971083
11418.648835,-4737.318029,-3256.906145,-57303.943250
11418.652034,-2812.782580,9030.512492,-54699.218557
11418.655234,-1628.453072,-15692.365970,-100052.072039
11418.658433,-6661.853478,-15840.407159,-99132.757441
11418.661632,-14804.118840,3108.864956,-90092.830565
11418.664846,1480.411884,14656.077652,-57610.381450
11418.668059,0.000000,8142.265362,-67722.842023
11418.671273,-6365.771101,-2516.700203,-95302.279951
11418.674487,-2960.823768,-5625.565159,-87488.105872
11418.677700,888.247130,-5329.482782,-79827.150892
11418.680914,-2664.741391,10362.883188,-66956.746525
11418.684128,-4145.153275,-11251.130318,-80899.684589
11418.687342,-3404.947333,-3256.906145,-73391.948708
11418.690555,-10362.883188,4589.276840,-59602.229744
11418.693769,-4737.318029,2368.659014,-61594.078039
11418.696983,-5033.400406,-1628.453072,-70787.224015
11418.700196,-3108.864956,-3108.864956,-92850.774358
11418.703410,-2072.576638,-2368.659014,-85036.600278
11418.706624,-2368.659014,10510.924376,-61287.639840
11418.709838,-3849.070898,-4441.235652,-61594.078039
11418.713051,4441.235652,4885.359217,-61440.858940
11418.716265,-888.247130,-1924.535449,-71400.100414
11418.719479,-5477.523971,8142.265362,-68948.594820
11418.722692,-1480.411884,14508.036463,-73851.606007
11418.725906,-4293.194464,17172.777854,-78448.178995
11418.729120,-2664.741391,1332.370696,-83044.751983
11418.732334,-1776.494261,2072.576638,-78601.398095
11418.735547,-6365.771101,5921.647536,-57303.943250
11418.738761,888.247130,11991.336260,-52247.712964
11418.741984,-1924.535449,13323.706956,-73085.510509
11418.745207,-6661.853478,14063.912898,-90552.487864
11418.748431,-148.041188,3701.029710,-84883.381178
11418.751654,-1184.329507,2368.659014,-82431.875585
11418.754877,0.000000,19097.313304,-77069.207099
11418.758100,1628.453072,15396.283594,-83504.409282
11418.761323,2516.700203,13323.706956,-85189.819378
11418.764546,-2220.617826,15544.324782,-85802.695776
11418.767770,-3256.906145,17764.942608,-80133.589091
11418.770993,1036.288319,9770.718434,-86109.133975
11418.774216,-4293.194464,8290.306550,-80440.027290
11418.777439,-13175.665768,8586.388927,-82431.875585
11418.780662,-4145.153275,6809.894666,-92084.678860
11418.783886,-13027.624579,13027.624579,-87028.448573
11418.787109,-4737.318029,4293.194464,-90246.049664
11418.790332,-10510.924376,-592.164754,-77528.864398
11418.793555,-5033.400406,5625.565159,-66803.527426
11418.796778,1628.453072,-13619.789333,-80286.808190
11418.800001,-8734.430116,-13027.624579,-76303.111601
11418.803225,-15840.407159,-592.164754,-80593.246390
11418.806448,-1332.370696,10658.965565,-40296.623195
11418.809671,-4293.194464,8882.471304,-47804.359075
11418.812894,-2812.782580,444.123565,-85189.819378
11418.816117,3701.029710,-7105.977043,-88713.858668
11418.819341,-3404.947333,9622.677246,-59602.229744
11418.822564,-3849.070898,10066.800811,-50102.645569
11418.825787,-2960.823768,4589.276840,-56537.847752
11418.829010,-5033.400406,1480.411884,-73085.510509
11418.832233,-3997.112087,-4441.235652,-80133.589091
11418.835456,-7994.224174,-2516.700203,-65424.555529
11418.838680,0.000000,592.164754,-63585.926334
11418.841903,-5477.523971,-3404.947333,-67109.965625
11418.845139,-2664.741391,2960.823768,-70327.566716
11418.848372,-5181.441594,5181.441594,-77069.207099
11418.851604,-1924.535449,-7846.182985,-86109.133975
11418.854836,-2072.576638,592.164754,-68795.375720
11418.858068,2072.576638,11399.171507,-72625.853210
11418.861300,-4885.359217,7254.018232,-67263.184724
11418.864532,-3849.070898,20577.725188,-54699.218557
11418.867764,-11399.171507,19097.313304,-60827.982541
11418.870996,5477.523971,6069.688724,-84730.162079
11418.874229,-4589.276840,11251.130318,-94842.622652
11418.877461,-8438.347739,2516.700203,-99898.852939
11418.880693,4441.235652,3997.112087,-82278.656485
11418.883925,-6809.894666,15396.283594,-57303.943250
11418.887157,-3404.947333,16432.571912,-57303.943250
11418.890389,444.123565,9918.759623,-71246.881314
11418.893621,-6365.771101,-3849.070898,-76149.892501
11418.896853,-7698.141797,9622.677246,-78448.178995
11418.900086,-5181.441594,8882.471304,-74770.920605
11418.903318,-5773.606348,14211.954086,-74158.044206
11418.906550,-4885.359217,12435.459826,-79980.369991
11418.909782,-4737.318029,11843.295072,-65730.993728
11418.913014,-4293.194464,11251.130318,-50255.864669
11418.916246,-7105.977043,15100.201217,-51788.055665
11418.919478,-5033.400406,3997.112087,-70940.443115
11418.922710,3108.864956,15100.201217,-84576.942979
11418.925943,-888.247130,3552.988522,-85955.914876
11418.929175,-592.164754,11695.253884,-72319.415011
11418.932407,-148.041188,444.123565,-76609.549800
11418.935639,5329.482782,-6809.894666,-77835.302597
11418.938871,-1332.370696,-10807.006753,-69255.033019
11418.942103,-2664.741391,14508.036463,-52094.493864
11418.945335,296.082377,3849.070898,-81052.903688
11418.948574,-7402.059420,-4885.359217,-108479.122517
11418.951813,-5625.565159,2220.617826,-94229.746254
11418.955052,-148.041188,592.164754,-83964.066581
11418.958291,-2220.617826,8438.347739,-64658.460031
11418.961530,-5477.523971,6217.729913,-72472.634111
11418.964769,0.000000,2368.659014,-90092.830565
11418.968008,-9918.759623,1332.370696,-81206.122788
11418.971247,3108.864956,4589.276840,-73391.948708
11418.974486,-888.247130,-3404.947333,-74464.482406
11418.977725,-6069.688724,-1480.411884,-80746.465489
11418.980963,-5181.441594,-7105.977043,-79367.493593
11418.984202,-5033.400406,1480.411884,-64505.240932
11418.987441,-2960.823768,9326.594869,-62360.173537
11418.990680,-1332.370696,-4885.359217,-76456.330700
11418.993919,-2516.700203,-1628.453072,-87947.763170
11418.997158,-3404.947333,13471.748144,-78448.178995
11419.000397,-3701.029710,5921.647536,-74158.044206
11419.003636,-2368.659014,14952.160028,-67569.622924
11419.006875,-9622.677246,13767.830521,-66497.089226
11419.010114,3552.988522,10955.047942,-66803.527426
11419.013353,-1776.494261,11103.089130,-74004.825107
11419.016592,-5477.523971,7550.100608,-83964.066581
11419.019831,2220.617826,5033.400406,-83964.066581
11419.023069,-5033.400406,12583.501014,-73391.948708
11419.026308,-1480.411884,16284.530724,-69561.471218
11419.029547,-1628.453072,3701.029710,-75383.797003
11419.032786,-2812.782580,12139.377449,-76303.111601
11419.036025,-2960.823768,6957.935855,-84730.162079
11419.039264,-296.082377,9326.594869,-83044.751983
11419.042503,-5477.523971,15396.283594,-68182.499322
11419.045742,-4145.153275,13323.706956,-70480.785816
11419.048981,-4441.235652,296.082377,-75690.235202
11419.052225,-1036.288319,12879.583391,-82431.875585
11419.055469,-3849.070898,3701.029710,-77528.864398
11419.058713,-296.082377,4293.194464,-71093.662214
11419.061957,-8290.306550,11103.089130,-62206.954438
11419.065201,-2664.741391,15396.283594,-63892.364533
11419.068444,-3552.988522,-6365.771101,-82738.313784
11419.071688,-7698.141797,5921.647536,-86109.133975
11419.074932,3108.864956,-3701.029710,-96068.375449
11419.078176,-1480.411884,-6513.812290,-92237.897959
11419.081420,-20725.766376,2516.700203,-77069.207099
11419.084664,-740.205942,4885.359217,-56844.285952
11419.087908,2072.576638,2960.823768,-65884.212828
11419.091152,-10658.965565,8142.265362,-68335.718422
11419.094396,-6513.812290,-888.247130,-84117.285680
11419.097640,-592.164754,740.205942,-90092.830565
11419.100884,-1924.535449,3552.988522,-72932.291410
11419.104128,-3552.988522,2812.782580,-64198.802732
11419.107372,-6069.688724,2368.659014,-65577.774629
11419.110616,-444.123565,4145.153275,-65884.212828
11419.113860,0.000000,-5033.400406,-75230.577904
11419.117104,-5921.647536,-1924.535449,-75843.454302
11419.120347,-1628.453072,4145.153275,-64811.679131
11419.123591,888.247130,5773.606348,-67876.061123
11419.126835,-5329.482782,-6069.688724,-80440.027290
11419.130079,-1776.494261,3701.029710,-78448.178995
11419.133323,4293.194464,4441.235652,-77222.426198
11419.136567,-9474.636058,9622.677246,-69408.252119
11419.139811,-1776.494261,25018.960840,-56691.066852
11419.143055,-2664.741391,11843.295072,-72472.634111
11419.146299,-6217.729913,1776.494261,-90858.926063
11419.149543,-2812.782580,9030.512492,-95455.499051
11419.152787,2220.617826,3997.112087,-85649.476676
11419.156034,-6513.812290,14952.160028,-63432.707234
11419.159282,2072.576638,18505.148550,-60061.887043
11419.162529,-888.247130,7254.018232,-80286.808190
11419.165777,-4145.153275,9178.553681,-76609.549800
11419.169024,-6809.894666,6661.853478,-81206.122788
11419.172272,296.082377,10362.883188,-84423.723880
11419.175519,-888.247130,14063.912898,-84423.723880
11419.178767,-2220.617826,11547.212695,-78754.617194
11419.182015,-5181.441594,13323.706956,-74617.701505
11419.185262,-1628.453072,13619.789333,-77222.426198
11419.188510,-3404.947333,11991.336260,-85802.695776
11419.191757,-6661.853478,1628.453072,-85496.257577
11419.195005,-2072.576638,16136.489536,-69255.033019
11419.198252,-3256.906145,740.205942,-71706.538613
11419.201500,-4737.318029,10658.965565,-66037.431928
11419.204747,-592.164754,-5181.441594,-70327.566716
11419.207995,592.164754,2960.823768,-70787.224015
11419.211242,-3404.947333,-1184.329507,-66497.089226
11419.214490,2664.741391,11695.253884,-68182.499322
11419.217737,4885.359217,-5773.606348,-93003.993457
11419.220985,-6217.729913,-740.205942,-87334.886772
11419.224232,3552.988522,1036.288319,-81512.560987
11419.227480,2220.617826,8142.265362,-69255.033019
11419.230727,-7550.100608,444.123565,-70021.128517
11419.233975,1924.535449,-2960.823768,-85649.476676
11419.237222,-11399.171507,-7105.977043,-85802.695776
11419.240470,-4589.276840,7846.182985,-66803.527426
11419.243717,-2072.576638,-1924.535449,-72932.291410
11419.246965,-4145.153275,-6217.729913,-72472.634111
11419.250212,-4145.153275,-8142.265362,-74770.920605
11419.253460,-5773.606348,-5773.606348,-81052.903688
11419.256707,-6069.688724,5921.647536,-71400.100414
11419.259957,-444.123565,4441.235652,-58682.915147
11419.263207,2664.741391,12139.377449,-51175.179266
11419.266457,-1628.453072,-8438.347739,-66650.308326
11419.269707,2812.782580,11695.253884,-67569.622924
11419.272957,-296.082377,7105.977043,-72166.195912
11419.276207,-148.041188,20281.642811,-62819.830836
11419.279457,1036.288319,13767.830521,-69714.690318
11419.282707,5625.565159,12287.418637,-66037.431928
11419.285957,740.205942,6957.935855,-77069.207099
11419.289207,-4885.359217,10807.006753,-70940.443115
11419.292457,-444.123565,10658.965565,-79673.931792
11419.295707,-7550.100608,10955.047942,-89633.173266
11419.298957,-4441.235652,7254.018232,-93157.212557
11419.302206,-6365.771101,-8142.265362,-102963.234931
11419.305456,-4589.276840,4145.153275,-91012.145162
11419.308706,-6957.935855,10066.800811,-69714.690318
11419.311956,-3997.112087,17468.860231,-65424.555529
11419.315206,-8438.347739,14063.912898,-70021.128517
11419.318456,-1036.288319,11991.336260,-80440.027290
11419.321706,1628.453072,9770.718434,-87181.667672
11419.324956,-9622.677246,3997.112087,-87947.763170
11419.328206,7846.182985,12583.501014,-75537.016103
11419.331456,-10807.006753,1332.370696,-70480.785816
11419.334706,6957.935855,19837.519246,-46885.044478
11419.337956,-1036.288319,-7846.182985,-60215.106143
11419.341206,-8438.347739,5921.647536,-58989.353346
11419.344456,592.164754,2220.617826,-63585.926334
11419.347706,2960.823768,2812.782580,-78754.617194
11419.350956,6661.853478,-6661.853478,-98060.223744
11419.354205,-5921.647536,-1036.288319,-85036.600278
11419.357455,3256.906145,-1480.411884,-71859.757712
11419.360705,-1332.370696,4293.194464,-62973.049936
11419.363957,-6809.894666,9622.677246,-59142.572446
11419.367208,3404.947333,3849.070898,-73085.510509
11419.370459,-7550.100608,1184.329507,-95455.499051
11419.373710,-5181.441594,444.123565,-98060.223744
11419.376962,296.082377,888.247130,-88100.982270
11419.380213,-2072.576638,-1776.494261,-78754.617194
11419.383464,-3404.947333,1036.288319,-72472.634111
11419.386716,-296.082377,-1480.411884,-86875.229473
11419.389967,-4293.194464,3701.029710,-90092.830565
11419.393218,-444.123565,-5773.606348,-78141.740796
11419.396469,-1184.329507,1332.370696,-63585.926334
11419.399721,-6069.688724,12435.459826,-75996.673402
11419.402972,-2812.782580,8438.347739,-70940.443115
11419.406223,-4441.235652,12287.418637,-70174.347617
11419.409474,-5181.441594,13027.624579,-69714.690318
11419.412726,4589.276840,10510.924376,-69408.252119
11419.415977,-888.247130,10510.924376,-76456.330700
11419.419228,-7550.100608,8290.306550,-76762.768900
11419.422480,296.082377,8438.347739,-76762.768900
11419.425731,-3997.112087,10955.047942,-68948.594820
11419.428982,-4589.276840,13767.830521,-54392.780358
11419.432233,-4145.153275,5921.647536,-59142.572446
11419.435485,-7402.059420,3849.070898,-75077.358804
11419.438736,148.041188,13027.624579,-76303.111601
11419.441987,-1184.329507,10807.006753,-80746.465489
11419.445238,-7846.182985,7402.059420,-80899.684589
11419.448490,-1776.494261,10214.842000,-75230.577904
11419.451741,-1184.329507,12879.583391,-68795.375720
11419.454992,-2812.782580,11547.212695,-68488.937521
11419.458244,1332.370696,6809.894666,-67569.622924
11419.461495,-4589.276840,-3108.864956,-71400.100414
11419.464746,-9030.512492,12435.459826,-53933.123059
11419.467998,148.041188,-2960.823768,-55924.971354
11419.471250,-2220.617826,2516.700203,-72472.634111
11419.474502,-1480.411884,-4145.153275,-89326.735067
11419.477754,11399.171507,-148.041188,-81359.341888
11419.481007,-4441.235652,-4441.235652,-74924.139704
11419.484259,-7254.018232,4737.318029,-58376.476948
11419.487511,6069.688724,5329.482782,-60368.325242
11419.490763,-2812.782580,-3108.864956,-83044.751983
11419.494015,-5033.400406,5329.482782,-96068.375449
11419.497267,296.082377,-1480.411884,-83351.190182
11419.500519,2516.700203,-3404.947333,-60674.763442
11419.503771,-1036.288319,7254.018232,-47038.263577
11419.507023,-2516.700203,-1332.370696,-58682.915147
11419.510275,-148.041188,-10510.924376,-87181.667672
11419.513527,-6365.771101,-6957.935855,-92544.336158
11419.516779,-3997.112087,3701.029710,-75230.577904
11419.520032,-148.041188,6513.812290,-67569.622924
11419.523284,-3108.864956,5773.606348,-76149.892501
11419.526536,-6217.729913,-4737.318029,-99132.757441
11419.529788,-8734.430116,2812.782580,-88560.639569
11419.533040,-2072.576638,14211.954086,-65730.993728
11419.536292,-296.082377,18653.189738,-64198.802732
11419.539544,-17912.983796,9770.718434,-66650.308326
11419.542796,296.082377,8586.388927,-81972.218286
11419.545990,-4885.359217,3108.864956,-97600.566445
11419.549184,-7105.977043,8142.265362,-75077.358804
11419.552379,2368.659014,11399.171507,-50255.864669
11419.555573,-3108.864956,13767.830521,-58682.915147
11419.558767,-740.205942,11399.171507,-57916.819649
11419.561961,-5625.565159,1776.494261,-55158.875856
11419.565155,-3552.988522,1480.411884,-67109.965625
11419.568349,-5773.606348,7550.100608,-75537.016103
11419.571543,4737.318029,13471.748144,-72779.072310
11419.574737,3108.864956,11103.089130,-71246.881314
11419.577932,-1036.288319,11843.295072,-59449.010645
11419.581126,-3552.988522,21021.848753,-53779.903960
11419.584320,-2812.782580,5329.482782,-77069.207099
11419.587514,-5033.400406,10214.842000,-86722.010374
11419.590708,-2664.741391,-3404.947333,-95302.279951
11419.593902,-3997.112087,9030.512492,-90399.268764
11419.597096,-6217.729913,5181.441594,-75843.454302
11419.600290,-2664.741391,5477.523971,-74464.482406
11419.603484,-4885.359217,-7105.977043,-84270.504780
11419.606679,1924.535449,4145.153275,-79061.055394
11419.609873,2072.576638,-1776.494261,-79214.274493
11419.613067,-2812.782580,-2960.823768,-78141.740796
11419.616261,-2368.659014,4885.359217,-77222.426198
11419.619455,2072.576638,2664.741391,-82431.875585
11419.622649,-10362.883188,2368.659014,-82431.875585
11419.625843,5033.400406,5921.647536,-74617.701505
11419.629037,296.082377,2960.823768,-62360.173537
11419.632232,-7846.182985,-3256.906145,-67416.403824
11419.635426,1628.453072,-444.123565,-68488.937521
11419.638620,-5625.565159,-6217.729913,-74158.044206
11419.641814,-1184.329507,592.164754,-73085.510509
11419.645008,-2368.659014,5329.482782,-70174.347617
11419.648214,-3108.864956,-4885.359217,-77988.521696
11419.651420,-740.205942,7254.018232,-68488.937521
11419.654626,-2516.700203,4589.276840,-62973.049936
11419.657831,-888.247130,10807.006753,-71859.757712
11419.661037,-2220.617826,13323.706956,-80440.027290
11419.664243,-2516.700203,12139.377449,-77069.207099
11419.667449,-7994.224174,2812.782580,-73391.948708
11419.670655,-4589.276840,18357.107362,-69255.033019
11419.673860,3108.864956,11843.295072,-70480.785816
11419.677066,-6957.935855,296.082377,-76609.549800
11419.680272,-3701.029710,11695.253884,-66037.431928
11419.683478,-1332.370696,9474.636058,-58529.696047
11419.686684,-3552.988522,3997.112087,-69561.471218
11419.689889,-3997.112087,8438.347739,-65884.212828
11419.693095,4589.276840,14359.995275,-77069.207099
11419.696301,-5625.565159,16432.571912,-77682.083497
11419.699507,148.041188,14804.118840,-80133.589091
11419.702713,-5033.400406,6661.853478,-74770.920605
11419.705918,3108.864956,13027.624579,-69714.690318
11419.709124,1924.535449,11399.171507,-64045.583633
11419.712330,148.041188,16432.571912,-73238.729609
11419.715536,-5921.647536,1332.370696,-97753.785545
11419.718742,-1480.411884,14359.995275,-93003.993457
11419.721947,-2960.823768,-1924.535449,-91625.021561
11419.725153,-4589.276840,6217.729913,-78294.959896
11419.728359,3701.029710,-2368.659014,-79827.150892
11419.731565,-8290.306550,2516.700203,-79827.150892
11419.734771,2368.659014,3701.029710,-79061.055394
11419.737976,-2368.659014,-5921.647536,-79061.055394
11419.741182,-3997.112087,-5773.606348,-83964.066581
11419.744388,2220.617826,5033.400406,-72012.976812
11419.747594,148.041188,10214.842000,-78601.398095
11419.750809,1628.453072,9622.677246,-89326.735067
11419.754024,-1480.411884,13619.789333,-85955.914876
11419.757240,-1332.370696,-888.247130,-89939.611465
11419.760455,-2368.659014,-4145.153275,-100818.167537
11419.763670,-9178.553681,-6661.853478,-99285.976541
11419.766886,2220.617826,592.164754,-95761.937250
11419.770101,-1776.494261,-2960.823768,-100818.167537
11419.773316,-7550.100608,4589.276840,-85802.695776
11419.776532,-3108.864956,2072.576638,-87334.886772
11419.779747,-12879.583391,8290.306550,-79827.150892
11419.782962,-4441.235652,3552.988522,-96068.375449
11419.786178,-1628.453072,13323.706956,-85955.914876
11419.789393,-6069.688724,5181.441594,-75996.673402
11419.792608,-5181.441594,11991.336260,-62206.954438
11419.795824,-6957.935855,9178.553681,-69867.909418
11419.799039,1184.329507,10510.924376,-71400.100414
11419.802254,592.164754,6661.853478,-79827.150892
11419.805470,-6957.935855,12435.459826,-68335.718422
11419.808685,-5329.482782,12879.583391,-55312.094956
11419.811900,3256.906145,12879.583391,-58070.038748
11419.815116,-7550.100608,6957.935855,-69255.033019
11419.818331,1480.411884,13767.830521,-78601.398095
11419.821546,-3404.947333,9918.759623,-77069.207099
11419.824762,-5625.565159,9770.718434,-77835.302597
11419.827977,-2072.576638,21465.972318,-71246.881314
11419.831192,2368.659014,10807.006753,-76149.892501
11419.834408,-7402.059420,1480.411884,-84576.942979
11419.837623,-4145.153275,444.123565,-71706.538613
11419.840838,1480.411884,12287.418637,-56384.628653
11419.844054,-1184.329507,-4145.153275,-64811.679131
11419.847269,-5329.482782,10362.883188,-73085.510509
11419.850484,-3108.864956,-8734.430116,-102656.796732
11419.853713,444.123565,-8142.265362,-89786.392366
11419.856936,-4885.359217,7402.059420,-59142.572446
11419.860159,-5477.523971,2812.782580,-61900.516238
11419.863382,-3849.070898,296.082377,-76915.987999
11419.866605,2516.700203,-6661.853478,-87641.324971
11419.869828,-8290.306550,2664.741391,-74004.825107
11419.873051,-444.123565,12139.377449,-53167.027561
11419.876274,3404.947333,8438.347739,-55005.656756
11419.879497,-2960.823768,-5033.400406,-70327.566716
11419.882720,-5329.482782,-8734.430116,-84730.162079
11419.885943,-1036.288319,-444.123565,-70480.785816
11419.889166,-3701.029710,6513.812290,-67722.842023
11419.892389,-3108.864956,7846.182985,-79980.369991
11419.895613,-3404.947333,-4145.153275,-96528.032748
11419.898836,-8882.471304,-2368.659014,-85802.695776
11419.902059,-9622.677246,11399.171507,-88867.077768
11419.905282,-5033.400406,10658.965565,-68642.156621
11419.908505,-2664.741391,12583.501014,-60981.201641
11419.911728,-3849.070898,7402.059420,-68642.156621
11419.914951,-4145.153275,6957.935855,-65424.555529
11419.918174,-2664.741391,10955.047942,-69255.033019
11419.921397,-3552.988522,11547.212695,-72012.976812
11419.924620,-2220.617826,7254.018232,-69255.033019
11419.927843,-2368.659014,13027.624579,-66343.870127
11419.931066,888.247130,14656.077652,-62206.954438
11419.934289,-1776.494261,11399.171507,-75230.577904
11419.937512,-1036.288319,8734.430116,-86568.791274
11419.940735,148.041188,12583.501014,-80593.246390
11419.943958,-2812.782580,9918.759623,-74464.482406
11419.947181,-4145.153275,16728.654289,-61900.516238
11419.950404,2072.576638,22798.343014,-61440.858940
11419.953627,-5181.441594,1628.453072,-86568.791274
11419.956857,-4737.318029,6661.853478,-91625.021561
11419.960087,-2812.782580,-3701.029710,-93003.993457
11419.963317,-3849.070898,8438.347739,-75996.673402
11419.966547,592.164754,2516.700203,-71093.662214
11419.969776,-592.164754,12287.418637,-70480.785816
11419.973006,-4441.235652,-7254.018232,-91931.459760
11419.976236,1332.370696,2664.741391,-84576.942979
11419.979466,5477.523971,2368.659014,-73391.948708
11419.982696,-3849.070898,1480.411884,-73698.386908
11419.985926,444.123565,-148.041188,-87028.448573
11419.989155,-1628.453072,-296.082377,-90552.487864
11419.992385,-6069.688724,8290.306550,-76303.111601
11419.995615,2960.823768,-3849.070898,-68642.156621
11419.998845,-3404.947333,7846.182985,-67109.965625
11420.002075,-7846.182985,-296.082377,-81512.560987
11420.005304,2664.741391,-7550.100608,-92697.555258
11420.008534,-4293.194464,-11843.295072,-90399.268764
11420.011764,-2220.617826,2072.576638,-74158.044206
11420.014994,-592.164754,2516.700203,-75230.577904
11420.018224,1480.411884,18949.272115,-49336.550071
11420.021454,-2812.782580,-3849.070898,-66190.651027
11420.024683,-1332.370696,10807.006753,-77682.083497
11420.027913,-4293.194464,4293.194464,-92237.897959
11420.031143,-1184.329507,14211.954086,-79061.055394
11420.034373,-2664.741391,5033.400406,-78754.617194
11420.037603,-2220.617826,13175.665768,-66650.308326
11420.040832,-2220.617826,12583.501014,-62206.954438
11420.044062,-740.205942,10955.047942,-62360.173537
11420.047292,-3997.112087,7105.977043,-76456.330700
11420.050522,-148.041188,-740.205942,-82585.094684
11420.053752,-3849.070898,2368.659014,-72319.415011
11420.056982,-6069.688724,5773.606348,-75996.673402
11420.060217,-4589.276840,3849.070898,-61287.639840
11420.063452,-444.123565,13027.624579,-59755.448844
11420.066687,-6217.729913,11843.295072,-66803.527426
11420.069922,9030.512492,19985.560434,-70787.224015
11420.073157,-8290.306550,5921.647536,-71706.538613
11420.076393,-1036.288319,6513.812290,-80286.808190
11420.079628,-5921.647536,-4441.235652,-77222.426198
11420.082863,5033.400406,12879.583391,-57457.162350
11420.086098,-740.205942,-5329.482782,-71093.662214
11420.089333,-1924.535449,11695.253884,-72012.976812
11420.092569,-1480.411884,-3997.112087,-79980.369991
11420.095804,-3256.906145,1776.494261,-78601.398095
11420.099039,-7254.018232,-1332.370696,-84730.162079
11420.102274,-3552.988522,-5625.565159,-89173.515967
11420.105509,-6661.853478,-5181.441594,-89939.611465
11420.108744,-4885.359217,1776.494261,-67263.184724
11420.111980,-7994.224174,13915.871710,-70480.785816
11420.115215,-4885.359217,5181.441594,-71706.538613
11420.118450,-888.247130,2220.617826,-77682.083497
11420.121685,-5033.400406,-6809.894666,-79673.931792
11420.124920,444.123565,-5181.441594,-71246.881314
11420.128156,-3256.906145,1776.494261,-66343.870127
11420.131391,-5773.606348,3404.947333,-71400.100414
11420.134626,-1184.329507,-3997.112087,-81512.560987
11420.137861,-1924.535449,6661.853478,-70940.443115
11420.141096,-5181.441594,-4589.276840,-60827.982541
11420.144332,296.082377,16136.489536,-46578.606278
11420.147567,-1480.411884,6513.812290,-67416.403824
11420.150802,-7550.100608,14952.160028,-70327.566716
11420.154037,-1480.411884,1332.370696,-81512.560987
11420.157272,-3552.988522,13767.830521,-67263.184724
11420.160507,-3701.029710,15544.324782,-62666.611736
11420.163747,-740.205942,13471.748144,-71553.319513
11420.166986,-5033.400406,4441.235652,-89633.173266
11420.170226,-7402.059420,444.123565,-93616.869856
11420.173465,0.000000,9030.512492,-79520.712692
11420.176704,-7105.977043,13471.748144,-52554.151163
11420.179944,-296.082377,16136.489536,-60368.325242
11420.183183,-3997.112087,9178.553681,-87181.667672
11420.186422,-3256.906145,7402.059420,-97140.909146
11420.189662,-4885.359217,16432.571912,-87028.448573
11420.192901,-5329.482782,10362.883188,-77835.302597
11420.196141,-2664.741391,12731.542202,-75690.235202
11420.199380,-1036.288319,-1924.535449,-86722.010374
11420.202619,1628.453072,10214.842000,-78601.398095
11420.205859,-3997.112087,444.123565,-85036.600278
11420.209098,-3404.947333,5181.441594,-71706.538613
11420.212337,3849.070898,-5773.606348,-72319.415011
11420.215577,-5921.647536,-2072.576638,-77682.083497
11420.218816,-1628.453072,-296.082377,-79980.369991
11420.222055,-592.164754,3108.864956,-73238.729609
11420.225295,-5625.565159,3404.947333,-90552.487864
11420.228534,2812.782580,-2072.576638,-94842.622652
11420.231774,-8142.265362,-3701.029710,-90399.268764
11420.235013,-4293.194464,6217.729913,-63279.488135
11420.238252,4145.153275,11399.171507,-62053.735338
11420.241492,-6513.812290,-5773.606348,-103576.111330
11420.244731,1184.329507,-20281.642811,-112462.819106
11420.247970,-2368.659014,-14359.995275,-100818.167537
11420.251210,-8882.471304,4885.359217,-49796.207370
11420.254449,2072.576638,22798.343014,-49642.988270
11420.257689,-6069.688724,-1480.411884,-94229.746254
11420.260928,-14952.160028,7698.141797,-101584.263035
11420.264167,-296.082377,10807.006753,-87488.105872
11420.267410,2368.659014,18949.272115,-79061.055394
11420.270652,-4441.235652,6809.894666,-77069.207099
11420.273895,-2220.617826,12287.418637,-72779.072310
11420.277138,-2516.700203,10362.883188,-77988.521696
11420.280380,-2812.782580,9030.512492,-73085.510509
11420.283623,148.041188,10955.047942,-60674.763442
11420.286865,-740.205942,17024.736666,-56078.190454
11420.290108,-2072.576638,22946.384202,-64352.021832
11420.293350,2960.823768,7254.018232,-110164.532612
11420.296593,-2960.823768,6365.771101,-115680.420198
11420.299836,-2220.617826,15396.283594,-89479.954166
11420.303078,5033.400406,19097.313304,-85955.914876
11420.306321,-2516.700203,19689.478057,-73851.606007
11420.309563,-8586.388927,3404.947333,-81818.999186
11420.312806,-1480.411884,7254.018232,-77988.521696
11420.316048,-5033.400406,-296.082377,-77988.521696
11420.319291,0.000000,14359.995275,-75690.235202
11420.322534,-3404.947333,-7698.141797,-93157.212557
11420.325776,-6217.729913,3701.029710,-92697.555258
11420.329019,-4885.359217,1036.288319,-84423.723880
11420.332261,2812.782580,1036.288319,-68182.499322
11420.335504,-6069.688724,2812.782580,-71859.757712
11420.338746,-3404.947333,-2812.782580,-75537.016103
11420.341989,-1628.453072,-592.164754,-68182.499322
11420.370722,-6957.935855,16876.695478,-58989.353346
11420.373915,-3552.988522,9770.718434,-58682.915147
11420.377107,-6809.894666,11399.171507,-85955.914876
11420.380300,-1332.370696,-296.082377,-110930.628110
11420.383493,-2516.700203,11695.253884,-92697.555258
11420.386685,-1924.535449,4145.153275,-71093.662214
11420.389878,-2960.823768,18653.189738,-56537.847752
11420.393070,-4145.153275,16728.654289,-83197.971083
11420.396263,2072.576638,4885.359217,-99285.976541
11420.399455,-4885.359217,9918.759623,-78601.398095
11420.402648,-5477.523971,12139.377449,-65730.993728
11420.405841,0.000000,8438.347739,-63585.926334
11420.409033,-3404.947333,-444.123565,-88867.077768
11420.412226,-4589.276840,5625.565159,-83964.066581
11420.415418,3552.988522,18653.189738,-61287.639840
11420.418611,-1924.535449,23686.590144,-55618.533155
11420.421804,-8142.265362,24130.713709,-54852.437657
11420.424996,-4145.153275,3108.864956,-93157.212557
11420.428189,-1480.411884,3997.112087,-101124.605736
11420.431381,-1776.494261,-592.164754,-84576.942979
11420.434574,-740.205942,16284.530724,-56384.628653
11420.437767,-4885.359217,1184.329507,-77375.645298
11420.440959,-1036.288319,-6957.935855,-92697.555258
11420.444152,-5329.482782,-11695.253884,-77222.426198
11420.447356,-6513.812290,10066.800811,-44586.757984
11420.450561,4737.318029,2072.576638,-63279.488135
11420.453765,-5773.606348,-14359.995275,-101431.043935
11420.456970,-4885.359217,1480.411884,-79980.369991
11420.460174,2664.741391,10807.006753,-56844.285952
11420.463379,2516.700203,15396.283594,-61900.516238
11420.466583,-5477.523971,740.205942,-101277.824836
11420.469788,-3701.029710,-6217.729913,-98060.223744
11420.472992,-10066.800811,-1036.288319,-45659.291681
11420.476197,3256.906145,6513.812290,-52860.589362
11420.479402,5181.441594,3404.947333,-77528.864398
11420.482606,-5625.565159,-18061.024985,-127325.071768
11420.485811,-7846.182985,6661.853478,-74924.139704
11420.489015,9770.718434,17764.942608,-32329.230016
11420.492220,-740.205942,5625.565159,-72932.291410
11420.495424,-6217.729913,-1036.288319,-108632.341616
11420.498629,-4737.318029,-296.082377,-101737.482134
11420.501833,-4885.359217,18357.107362,-43973.881585
11420.505038,3701.029710,23834.631332,-49642.988270
11420.508242,-1776.494261,1184.329507,-103422.892230
11420.511447,-6069.688724,8586.388927,-86109.133975
11420.514651,-2960.823768,19541.436869,-39836.965896
11420.517856,1332.370696,15544.324782,-37079.022103
11420.521060,-1776.494261,11103.089130,-76149.892501
11420.524265,1332.370696,2960.823768,-104648.645027
11420.527469,-5625.565159,17764.942608,-66343.870127
11420.530674,-1776.494261,33457.308578,-48110.797274
11420.533879,3256.906145,14211.954086,-93616.869856
11420.537083,-5921.647536,-6661.853478,-112769.257306
11420.540288,-7105.977043,4737.318029,-100818.167537
11420.543492,0.000000,4737.318029,-62360.173537
11420.546697,296.082377,16284.530724,-67263.184724
11420.549911,-3256.906145,-7402.059420,-105721.178724
11420.553126,-888.247130,2516.700203,-85343.038477
11420.556340,-740.205942,-2516.700203,-66037.431928
11420.559555,-4885.359217,7994.224174,-52247.712964
11420.562769,1628.453072,-2664.741391,-84423.723880
11420.565983,-3256.906145,-8142.265362,-97753.785545
11420.569198,-1776.494261,740.205942,-71553.319513
11420.572412,740.205942,11843.295072,-62053.735338
11420.575627,-8142.265362,14063.912898,-63892.364533
11420.578841,-740.205942,6809.894666,-79214.274493
11420.582056,1628.453072,0.000000,-95302.279951
11420.585270,-8882.471304,-9770.718434,-89633.173266
11420.588485,6513.812290,-444.123565,-74464.482406
11420.591699,-3404.947333,0.000000,-71093.662214
11420.594914,-11103.089130,-592.164754,-70174.347617
11420.598128,740.205942,8142.265362,-73085.510509
11420.601343,3997.112087,-3108.864956,-81665.780087
11420.604557,-7402.059420,6513.812290,-75843.454302
11420.607771,-1184.329507,17616.901420,-60061.887043
11420.610986,-4885.359217,10510.924376,-62053.735338
11420.614200,-6661.853478,1184.329507,-75383.797003
11420.617415,-9178.553681,9326.594869,-69867.909418
11420.620629,-5625.565159,15544.324782,-60215.106143
11420.623844,-3108.864956,17320.819043,-58682.915147
11420.627058,-1036.288319,888.247130,-74924.139704
11420.630273,-4737.318029,296.082377,-73545.167808
11420.633487,-5329.482782,10807.006753,-63585.926334
11420.636702,1184.329507,9178.553681,-50868.741067
11420.639916,-3701.029710,10066.800811,-57763.600549
11420.643131,-444.123565,14508.036463,-68029.280222
11420.646345,-1776.494261,16580.613101,-70021.128517
11420.649559,-5477.523971,12139.377449,-73851.606007
11420.652732,3552.988522,12435.459826,-61900.516238
11420.655905,3849.070898,-6957.935855,-90092.830565
11420.659078,-10807.006753,4145.153275,-79673.931792
11420.662251,-888.247130,11695.253884,-62666.611736
11420.665424,3404.947333,2072.576638,-89633.173266
11420.668597,-3404.947333,-3997.112087,-91318.583362
11420.671770,-6957.935855,-5625.565159,-107866.246118
11420.674943,3552.988522,-4589.276840,-77069.207099
11420.678116,-4293.194464,4885.359217,-52860.589362
11420.681289,-2664.741391,740.205942,-79827.150892
11420.684462,-2368.659014,-8882.471304,-91778.240660
11420.687635,-6069.688724,-10214.842000,-71093.662214
11420.690808,2960.823768,14063.912898,-32176.010916
11420.693981,-1184.329507,-1628.453072,-67109.965625
11420.697154,7550.100608,-13175.665768,-114761.105600
11420.700327,-296.082377,-5181.441594,-97140.909146
11420.703500,-1036.288319,2812.782580,-54545.999458
11420.706673,1924.535449,29608.237680,-46272.168079
11420.709846,-4293.194464,4441.235652,-82431.875585
11420.713019,-3256.906145,10658.965565,-89326.735067
11420.716192,-5921.647536,10955.047942,-84576.942979
11420.719365,5329.482782,17468.860231,-78294.959896
11420.722538,-6217.729913,6069.688724,-95149.060852
11420.725711,-1332.370696,10214.842000,-91931.459760
11420.728884,2220.617826,13175.665768,-100205.291138
11420.732057,-7698.141797,10955.047942,-96681.251848
11420.735230,-2960.823768,12731.542202,-73851.606007
11420.738403,1332.370696,8290.306550,-67722.842023
11420.741576,-3404.947333,15988.448347,-76762.768900
11420.744749,1184.329507,10510.924376,-71093.662214
11420.747922,1776.494261,9178.553681,-81359.341888
11420.751095,-1480.411884,15396.283594,-91012.145162
11420.754284,-9030.512492,20873.807564,-83810.847481
11420.757473,-1036.288319,9770.718434,-76609.549800
11420.760663,-5773.606348,10955.047942,-70480.785816
11420.763852,0.000000,-444.123565,-85802.695776
11420.767042,-148.041188,10510.924376,-91012.145162
11420.770231,-8438.347739,2664.741391,-87028.448573
11420.773420,-148.041188,10658.965565,-68335.718422
11420.776610,-4589.276840,-8734.430116,-81052.903688
11420.779799,-2664.741391,-5329.482782,-86415.572174
11420.782988,1036.288319,-3849.070898,-88867.077768
11420.786178,-4441.235652,-1332.370696,-75996.673402
11420.789367,-10658.965565,9030.512492,-59295.791545
11420.792557,4737.318029,6513.812290,-77528.864398
11420.795746,-8290.306550,3552.988522,-96528.032748
11420.798935,-444.123565,7550.100608,-97447.347346
11420.802125,4441.235652,444.123565,-88867.077768
11420.805314,1776.494261,-10214.842000,-95149.060852
11420.808503,2072.576638,-2072.576638,-89939.611465
11420.811693,-1480.411884,-8586.388927,-74770.920605
11420.814882,-7846.182985,8586.388927,-64505.240932
11420.818071,-9622.677246,10510.924376,-79673.931792
11420.821261,-5625.565159,18801.230927,-73238.729609
11420.824450,-5329.482782,4589.276840,-102197.139433
11420.827640,1480.411884,14804.118840,-91625.021561
11420.830829,-8882.471304,7994.224174,-81972.218286
11420.834018,3404.947333,13027.624579,-68488.937521
11420.837208,-2072.576638,8734.430116,-71706.538613
11420.840397,-2368.659014,10362.883188,-84117.285680
11420.843586,-3108.864956,12139.377449,-70940.443115
11420.846776,148.041188,8586.388927,-60061.887043
11420.849965,1036.288319,16876.695478,-69101.813920
11420.853154,-2220.617826,12879.583391,-82278.656485
11420.856304,7254.018232,8882.471304,-93003.993457
11420.859458,296.082377,14359.995275,-89173.515967
11420.862613,-7550.100608,23538.548956,-85343.038477
11420.865768,-1776.494261,11843.295072,-78601.398095
11420.868922,-1184.329507,6069.688724,-82891.532884
11420.872077,-3849.070898,-3404.947333,-83504.409282
11420.875231,1776.494261,11547.212695,-78141.740796
11420.878386,-2516.700203,2812.782580,-76303.111601
11420.881540,-6217.729913,4885.359217,-76149.892501
11420.884695,2664.741391,-6809.894666,-83044.751983
11420.887850,-2516.700203,-3256.906145,-79673.931792
11420.891004,3404.947333,2960.823768,-73085.510509
11420.894159,-740.205942,-2368.659014,-75077.358804
11420.897313,-3256.906145,3552.988522,-75077.358804
11420.900468,-1036.288319,5921.647536,-67109.965625
11420.903623,3404.947333,3256.906145,-66956.746525
11420.906777,-2368.659014,1628.453072,-74617.701505
11420.909932,3256.906145,-4145.153275,-82125.437386
11420.913086,13175.665768,-3701.029710,-79520.712692
11420.916241,-5329.482782,-2664.741391,-90552.487864
11420.919396,1480.411884,-7698.141797,-89020.296868
11420.922550,1184.329507,6365.771101,-74617.701505
11420.925705,-12879.583391,4145.153275,-64964.898230
11420.928859,6661.853478,27239.578666,-58223.257848
11420.932014,-5477.523971,8586.388927,-60827.982541
11420.935169,-3552.988522,14063.912898,-92084.678860
11420.938323,-3404.947333,3552.988522,-99898.852939
11420.941478,1184.329507,7698.141797,-77222.426198
11420.944632,3404.947333,17764.942608,-66343.870127
11420.947787,148.041188,14508.036463,-76456.330700
11420.950942,-1332.370696,2368.659014,-81359.341888
11420.954096,-4441.235652,1776.494261,-74004.825107
11420.957224,-1332.370696,12583.501014,-60061.887043
11420.960351,-2220.617826,10658.965565,-64352.021832
11420.963479,-1184.329507,15396.283594,-67416.403824
11420.966606,-5329.482782,25463.084405,-70634.004916
11420.969734,-5181.441594,14211.954086,-84117.285680
11420.972862,-3404.947333,11547.212695,-80286.808190
11420.975989,888.247130,-2072.576638,-74924.139704
11420.979117,-3997.112087,740.205942,-65271.336430
11420.982244,-296.082377,1776.494261,-55465.314055
11420.985372,1776.494261,7550.100608,-54545.999458
11420.988499,-6069.688724,-5181.441594,-68948.594820
11420.991627,-3849.070898,2516.700203,-71859.757712
11420.994755,-1036.288319,-2072.576638,-80746.465489
11420.997882,-7698.141797,-1924.535449,-81665.780087
11421.001010,888.247130,-3552.988522,-82891.532884
11421.004137,-1184.329507,6069.688724,-90092.830565
11421.007265,-5625.565159,10807.006753,-77375.645298
11421.010392,2516.700203,6217.729913,-76303.111601
11421.013520,-9326.594869,-5329.482782,-90399.268764
11421.016648,-7698.141797,-10807.006753,-89939.611465
11421.019775,-6809.894666,-2960.823768,-70174.347617
11421.022903,-6809.894666,-11103.089130,-80899.684589
11421.026030,-4145.153275,15544.324782,-71859.757712
11421.029158,-7105.977043,4441.235652,-79980.369991
11421.032285,-11547.212695,18505.148550,-76762.768900
11421.035413,888.247130,9030.512492,-79980.369991
11421.038541,5773.606348,17320.819043,-81818.999186
11421.041668,2220.617826,6217.729913,-85189.819378
11421.044796,-3701.029710,12287.418637,-63279.488135
11421.047923,-2516.700203,13175.665768,-57150.724151
11421.051051,-888.247130,15248.242405,-68182.499322
11421.054178,0.000000,13471.748144,-73698.386908
11421.057333,-592.164754,-1480.411884,-68488.937521
11421.060487,-8586.388927,4145.153275,-68642.156621
11421.063641,5773.606348,14508.036463,-62053.735338
11421.066796,-5625.565159,20873.807564,-61287.639840
11421.069950,1776.494261,20133.601622,-83810.847481
11421.073104,-5181.441594,10658.965565,-93923.308055
11421.076259,1184.329507,5921.647536,-95149.060852
11421.079413,-4145.153275,-3701.029710,-74311.263306
11421.082567,-592.164754,10658.965565,-45046.415282
11421.085721,-6069.688724,-888.247130,-59755.448844
11421.088876,-7254.018232,2516.700203,-71093.662214
11421.092030,3256.906145,-2368.659014,-82738.313784
11421.095184,-8290.306550,148.041188,-75690.235202
11421.098339,-2072.576638,-592.164754,-89479.954166
11421.101493,2220.617826,-6365.771101,-87947.763170
11421.104647,-9770.718434,-148.041188,-74464.482406
11421.107801,-888.247130,16284.530724,-62819.830836
11421.110956,-2072.576638,-444.123565,-67722.842023
11421.114110,-5329.482782,-3552.988522,-90858.926063
11421.117264,-8290.306550,-7994.224174,-89173.515967
11421.120419,-5773.606348,-1924.535449,-62819.830836
11421.123573,-3404.947333,148.041188,-63739.145434
11421.126727,-7698.141797,-11547.212695,-80286.808190
11421.129881,-5477.523971,3552.988522,-78141.740796
11421.158454,-1332.370696,888.247130,-93463.650756
11421.161629,-6809.894666,3997.112087,-84423.723880
11421.164803,-4737.318029,14656.077652,-71859.757712
11421.167978,1480.411884,12879.583391,-80440.027290
11421.171153,-2516.700203,12583.501014,-74004.825107
11421.174327,-4441.235652,19541.436869,-79214.274493
11421.177502,-4145.153275,13619.789333,-85802.695776
11421.180677,-2812.782580,13323.706956,-77835.302597
11421.183852,0.000000,-5181.441594,-74617.701505
11421.187026,-5773.606348,-3108.864956,-68029.280222
11421.190201,-3256.906145,-5181.441594,-89633.173266
11421.193376,3552.988522,15248.242405,-56231.409553
11421.196550,-6513.812290,-2664.741391,-53473.465760
11421.199725,-3701.029710,-1628.453072,-70021.128517
11421.202900,1184.329507,-296.082377,-82891.532884
11421.206074,-1332.370696,-2220.617826,-83504.409282
11421.209249,-2960.823768,444.123565,-84117.285680
11421.212424,-4737.318029,5773.606348,-83197.971083
11421.215599,-740.205942,-1036.288319,-67109.965625
11421.218773,-2664.741391,-1332.370696,-57763.600549
11421.221948,-9178.553681,-10066.800811,-69408.252119
11421.225123,-3701.029710,-4885.359217,-79980.369991
11421.228297,-5625.565159,-6069.688724,-74311.263306
11421.231472,-4737.318029,-7105.977043,-70940.443115
11421.234666,-7994.224174,3552.988522,-73238.729609
11421.237860,15840.407159,2960.823768,-75537.016103
11421.241054,-5773.606348,10066.800811,-63126.269035
11421.244248,-10807.006753,19097.313304,-56997.505051
11421.247442,1628.453072,19393.395680,-53167.027561
11421.250636,740.205942,0.000000,-73698.386908
11421.253829,-1628.453072,5921.647536,-77528.864398
11421.257023,-4885.359217,20429.683999,-71400.100414
11421.260217,444.123565,17616.901420,-65271.336430
11421.263411,-2516.700203,2072.576638,-71706.538613
11421.266605,-2960.823768,11991.336260,-71246.881314
11421.269799,-6957.935855,12139.377449,-77682.083497
11421.272993,148.041188,9770.718434,-79827.150892
11421.276187,-5033.400406,15248.242405,-74311.263306
11421.279381,-8882.471304,19393.395680,-75077.358804
11421.282575,1332.370696,9474.636058,-65271.336430
11421.285769,-7402.059420,3108.864956,-62666.611736
11421.288962,-4145.153275,2220.617826,-72779.072310
11421.292156,-6069.688724,-2220.617826,-88254.201370
11421.295350,0.000000,4441.235652,-80286.808190
11421.298544,-6217.729913,-2664.741391,-82431.875585
11421.301738,-4441.235652,-740.205942,-70634.004916
11421.304932,-2072.576638,-1036.288319,-74770.920605
11421.308126,-2960.823768,-1036.288319,-80593.246390
11421.311320,888.247130,888.247130,-78601.398095
11421.314514,-7698.141797,148.041188,-71859.757712
11421.317708,-5625.565159,-148.041188,-72932.291410
11421.320902,740.205942,4885.359217,-63892.364533
11421.324096,-4885.359217,-7105.977043,-70021.128517
11421.327289,-1924.535449,-7105.977043,-76149.892501
11421.330483,7846.182985,-592.164754,-72319.415011
11421.333677,-7402.059420,-11399.171507,-70634.004916
11421.336887,-4293.194464,2516.700203,-59602.229744
11421.340096,6661.853478,2072.576638,-61287.639840
11421.343306,-148.041188,13471.748144,-66037.431928
11421.346516,3997.112087,11103.089130,-69714.690318
11421.349725,-3256.906145,19393.395680,-70327.566716
11421.352935,-6365.771101,2220.617826,-64811.679131
11421.356144,5033.400406,5033.400406,-70480.785816
11421.359354,-3997.112087,13471.748144,-76762.768900
11421.362563,-3552.988522,17616.901420,-85036.600278
11421.365773,3256.906145,1480.411884,-80899.684589
11421.368982,-5921.647536,0.000000,-62973.049936
11421.372192,-10807.006753,9474.636058,-72779.072310
11421.375402,-1184.329507,12879.583391,-59908.667944
11421.378611,1036.288319,15988.448347,-62053.735338
11421.381821,-7846.182985,14656.077652,-74924.139704
11421.385030,-6069.688724,13027.624579,-70940.443115
11421.388240,9622.677246,8142.265362,-64352.021832
11421.391449,1480.411884,5181.441594,-50255.864669
11421.394659,-5033.400406,-740.205942,-64811.679131
11421.397869,1480.411884,9622.677246,-76149.892501
11421.401078,-1184.329507,-4145.153275,-84730.162079
11421.404288,-6069.688724,-2220.617826,-70174.347617
11421.407497,-7105.977043,1628.453072,-63279.488135
11421.410707,-1924.535449,4441.235652,-64352.021832
11421.413916,1628.453072,-888.247130,-76456.330700
11421.417126,-8882.471304,2368.659014,-89173.515967
11421.420336,-2812.782580,-8290.306550,-87334.886772
11421.423545,1184.329507,-2072.576638,-64964.898230
11421.426755,-12435.459826,-8438.347739,-66803.527426
11421.429964,-12583.501014,592.164754,-51175.179266
11421.433174,-1776.494261,-2072.576638,-59755.448844
11421.436383,-3108.864956,-13323.706956,-85955.914876
11421.439607,2072.576638,-2368.659014,-79980.369991
11421.442830,9326.594869,2812.782580,-58529.696047
11421.446053,-8734.430116,16580.613101,-62666.611736
11421.449276,-1924.535449,25018.960840,-48264.016374
11421.452499,-148.041188,14656.077652,-61900.516238
11421.455722,-2960.823768,2220.617826,-73085.510509
11421.458945,-296.082377,9918.759623,-69101.813920
11421.462169,0.000000,19393.395680,-83197.971083
11421.465392,3701.029710,15692.365970,-81665.780087
11421.468615,1184.329507,-2812.782580,-109704.875314
11421.471838,-6365.771101,10807.006753,-90552.487864
11421.475061,-5625.565159,19245.354492,-59908.667944
11421.478284,4885.359217,18505.148550,-64811.679131
11421.481507,-1332.370696,20281.642811,-74617.701505
11421.484731,-13027.624579,9178.553681,-106793.712421
11421.487954,-2516.700203,9770.718434,-80133.589091
11421.491177,-7698.141797,1480.411884,-51634.836565
11421.494400,5625.565159,2368.659014,-72166.195912
11421.497623,-5773.606348,-22206.178260,-109858.094413
11421.500846,-8734.430116,-888.247130,-103882.549529
11421.504069,1924.535449,7254.018232,-48723.673673
11421.507293,-1036.288319,4145.153275,-48417.235474
11421.510516,-6809.894666,-9770.718434,-89479.954166
11421.513739,-6957.935855,-4145.153275,-83964.066581
11421.516962,444.123565,13767.830521,-53473.465760
11421.520185,-3701.029710,13915.871710,-50102.645569
11421.523408,1628.453072,4293.194464,-81818.999186
11421.526631,7698.141797,-8438.347739,-104648.645027
11421.529855,-11399.171507,-8290.306550,-85802.695776
11421.533078,4293.194464,3701.029710,-62053.735338
11421.536301,-2664.741391,-3849.070898,-65271.336430
11421.539524,-148.041188,13471.748144,-60368.325242
11421.542758,-4441.235652,-6513.812290,-88254.201370
11421.545992,-12435.459826,21317.931130,-82278.656485
11421.549226,-5477.523971,13767.830521,-92544.336158
11421.552460,888.247130,14508.036463,-90552.487864
11421.555694,592.164754,4145.153275,-98519.881043
11421.558928,-5921.647536,9326.594869,-78294.959896
11421.562162,888.247130,9326.594869,-70174.347617
11421.565396,-6513.812290,14804.118840,-70174.347617
11421.568630,-2960.823768,13175.665768,-72779.072310
11421.571863,-1480.411884,6217.729913,-70480.785816
11421.575097,-3404.947333,8734.430116,-69101.813920
11421.578331,2960.823768,8734.430116,-82431.875585
11421.581565,3552.988522,15692.365970,-82891.532884
11421.584799,-4737.318029,14508.036463,-74311.263306
11421.588033,-6957.935855,19097.313304,-60827.982541
11421.591267,-2960.823768,10807.006753,-64045.583633
11421.594501,-7994.224174,1332.370696,-56537.847752
11421.597735,-8142.265362,-9474.636058,-70480.785816
11421.600969,-1184.329507,3701.029710,-72779.072310
11421.604203,-5773.606348,888.247130,-75077.358804
11421.607437,-4885.359217,-3404.947333,-73085.510509
11421.610671,-2960.823768,-2368.659014,-83351.190182
11421.613905,-2960.823768,4737.318029,-78448.178995
11421.617139,0.000000,1776.494261,-75537.016103
11421.620373,-5033.400406,4737.318029,-70174.347617
11421.623607,-1036.288319,7105.977043,-53473.465760
11421.626841,6217.729913,3256.906145,-54699.218557
11421.630074,-5181.441594,-888.247130,-54239.561258
11421.633308,-7698.141797,-3997.112087,-75383.797003
11421.636542,13915.871710,-11547.212695,-89633.173266
11421.639776,-2812.782580,5773.606348,-69867.909418
11421.643010,-10807.006753,10807.006753,-74770.920605
11421.646253,-5033.400406,21169.889941,-86875.229473
11421.649496,888.247130,7698.141797,-92237.897959
11421.652739,-10955.047942,17912.983796,-86109.133975
11421.655982,-2960.823768,6513.812290,-86722.010374
11421.659224,-2220.617826,4293.194464,-85802.695776
11421.662467,-7254.018232,7994.224174,-86568.791274
11421.665710,-1036.288319,9918.759623,-87488.105872
11421.668953,-3997.112087,14804.118840,-83197.971083
11421.672196,-1036.288319,7994.224174,-81818.999186
11421.675439,-8734.430116,7994.224174,-92697.555258
11421.678682,1332.370696,13767.830521,-87947.763170
11421.681924,3849.070898,18209.066173,-80440.027290
11421.685167,2960.823768,8586.388927,-68029.280222
11421.688410,-7550.100608,18801.230927,-56537.847752
11421.691653,0.000000,7994.224174,-63126.269035
11421.694896,-3404.947333,1036.288319,-67722.842023
11421.698139,-10214.842000,0.000000,-70480.785816
11421.701381,6069.688724,9622.677246,-63432.707234
11421.704624,-5329.482782,-148.041188,-79520.712692
11421.707867,-2812.782580,1036.288319,-88713.858668
11421.711110,-3997.112087,-2664.741391,-93157.212557
11421.714353,-5181.441594,-740.205942,-80286.808190
11421.717596,-3997.112087,1776.494261,-62973.049936
11421.720839,-4589.276840,4737.318029,-64352.021832
11421.724081,-5181.441594,3552.988522,-72932.291410
11421.727324,2220.617826,3404.947333,-74770.920605
11421.730567,-11399.171507,-5625.565159,-81206.122788
11421.733810,-4737.318029,-1480.411884,-79520.712692
11421.737053,-1480.411884,-15692.365970,-78294.959896
11421.740296,3552.988522,6365.771101,-76609.549800
11421.743538,-5329.482782,1184.329507,-73545.167808
11421.746781,3997.112087,25759.166782,-49336.550071
11421.750017,592.164754,5773.606348,-62360.173537
11421.753267,-5625.565159,20281.642811,-71246.881314
11421.756516,2664.741391,14656.077652,-70480.785816
11421.759766,10658.965565,1480.411884,-83504.409282
11421.763016,-5181.441594,9030.512492,-88560.639569
11421.766265,-1776.494261,21614.013506,-77069.207099
11421.769515,0.000000,10807.006753,-67416.403824
11421.772765,-1480.411884,13767.830521,-70327.566716
11421.776014,-3701.029710,11399.171507,-67876.061123
11421.779264,-888.247130,9030.512492,-85496.257577
11421.782514,740.205942,15544.324782,-89326.735067
11421.785764,-4145.153275,13323.706956,-84423.723880
11421.789013,-3849.070898,22058.137072,-70480.785816
11421.792263,-3404.947333,1036.288319,-75077.358804
11421.795513,2220.617826,5921.647536,-78294.959896
11421.798762,4885.359217,-9178.553681,-95149.060852
11421.802012,-9178.553681,9622.677246,-78601.398095
11421.805262,8290.306550,148.041188,-76915.987999
11421.808511,-13619.789333,-5033.400406,-83657.628382
11421.811761,-8438.347739,-148.041188,-90705.706963
11421.815011,1776.494261,-5329.482782,-93003.993457
11421.818260,-9622.677246,592.164754,-83351.190182
11421.821510,-444.123565,6661.853478,-66190.651027
11421.824760,3108.864956,-1776.494261,-66037.431928
11421.828009,-8586.388927,-7698.141797,-74311.263306
11421.831259,-4589.276840,-2516.700203,-72472.634111
11421.834509,1184.329507,-7254.018232,-70480.785816
11421.837758,-3701.029710,-8586.388927,-72932.291410
11421.841008,-1628.453072,6661.853478,-76915.987999
11421.844258,3701.029710,7994.224174,-88407.420469
11421.847507,-12731.542202,14063.912898,-80440.027290
11421.850757,-148.041188,16432.571912,-85036.600278
11421.854013,-3552.988522,10807.006753,-75383.797003
11421.857268,-7846.182985,3997.112087,-60215.106143
11421.860524,-9474.636058,10214.842000,-58070.038748
11421.863780,-10066.800811,10510.924376,-70787.224015
11421.867035,-2072.576638,17764.942608,-70021.128517
11421.870291,444.123565,3997.112087,-70787.224015
11421.873547,-7105.977043,10510.924376,-55618.533155
11421.876802,-1184.329507,23686.590144,-62206.954438
11421.880058,2664.741391,11991.336260,-76915.987999
11421.883314,1332.370696,5477.523971,-78907.836294
11421.886569,-5181.441594,16284.530724,-72012.976812
11421.889825,2664.741391,14211.954086,-46425.387179
11421.893080,-1036.288319,444.123565,-42901.347888
11421.896336,-11547.212695,-10214.842000,-63739.145434
11421.899592,-444.123565,-3552.988522,-71093.662214
11421.902847,-740.205942,1036.288319,-68488.937521
11421.906103,-4293.194464,3256.906145,-59602.229744
11421.909359,1776.494261,-4737.318029,-76915.987999
11421.912614,1036.288319,-7254.018232,-89326.735067
11421.915870,148.041188,4293.194464,-69255.033019
11421.919126,-4145.153275,16136.489536,-51021.960167
11421.922381,-740.205942,6661.853478,-47957.578175
11421.925637,2812.782580,3849.070898,-70940.443115
11421.928893,-7550.100608,-11991.336260,-102963.234931
11421.932153,-2812.782580,-9178.553681,-89173.515967
11421.935413,-2368.659014,-10955.047942,-58223.257848
11421.938674,-1924.535449,8734.430116,-48264.016374
11421.941934,-1924.535449,7254.018232,-60674.763442
11421.945194,-1036.288319,12287.418637,-70021.128517
11421.948455,1480.411884,9030.512492,-72932.291410
11421.951715,-4293.194464,19541.436869,-62206.954438
11421.954975,6365.771101,7254.018232,-71706.538613
11421.958236,10362.883188,1332.370696,-78141.740796
11421.961496,-9770.718434,10658.965565,-77528.864398
11421.964756,5921.647536,19837.519246,-63739.145434
11421.968017,-2960.823768,-2516.700203,-65118.117330
11421.971277,-7994.224174,6069.688724,-64198.802732
11421.974537,-1924.535449,8142.265362,-69867.909418
11421.977798,1332.370696,16728.654289,-72166.195912
11421.981058,-7105.977043,18505.148550,-62206.954438
11421.984318,-5477.523971,16580.613101,-69408.252119
11421.987579,-444.123565,3997.112087,-77528.864398
11421.990839,3404.947333,2220.617826,-59908.667944
11421.994099,148.041188,-444.123565,-43973.881585
11421.997360,-2812.782580,4885.359217,-58223.257848
11422.000620,-740.205942,-5477.523971,-93770.088955
11422.003881,-5181.441594,-5329.482782,-84883.381178
11422.007141,-6809.894666,5477.523971,-69101.813920
11422.010401,4737.318029,3404.947333,-78754.617194
11422.013662,-296.082377,-8438.347739,-89939.611465
11422.016922,-9326.594869,-7254.018232,-86568.791274
11422.020182,-13027.624579,4885.359217,-55465.314055
11422.023443,-6217.729913,-444.123565,-55005.656756
11422.026703,-18061.024985,-2812.782580,-77835.302597
11422.029963,1628.453072,-444.123565,-85343.038477
11422.033224,1924.535449,-20873.807564,-91165.364262
11422.036488,-6365.771101,-888.247130,-78448.178995
11422.039752,8438.347739,10214.842000,-64964.898230
11422.043016,-5033.400406,15544.324782,-61287.639840
11422.046280,4737.318029,17024.736666,-54852.437657
11422.049544,-4441.235652,19393.395680,-52554.151163
11422.052808,-2664.741391,3849.070898,-57303.943250
11422.056072,-1480.411884,6513.812290,-69714.690318
11422.059336,-4737.318029,12879.583391,-84270.504780
11422.062600,-1332.370696,14656.077652,-89633.173266
11422.065864,-7698.141797,7994.224174,-82585.094684
11422.069128,148.041188,9622.677246,-83964.066581
11422.072392,-5773.606348,9030.512492,-78601.398095
11422.075656,-5625.565159,23094.425390,-65577.774629
11422.078920,-3849.070898,16728.654289,-71859.757712
11422.082184,-10510.924376,12287.418637,-81359.341888
11422.085448,-740.205942,9030.512492,-69561.471218
11422.088712,888.247130,-148.041188,-64964.898230
11422.091977,-7254.018232,-2516.700203,-66956.746525
11422.095241,1628.453072,13767.830521,-74464.482406
11422.098505,-5033.400406,-9030.512492,-86415.572174
11422.101769,-5773.606348,-3404.947333,-67416.403824
11422.105033,-592.164754,3849.070898,-53626.684860
11422.108297,5181.441594,8438.347739,-62666.611736
11422.111561,-2812.782580,-2812.782580,-73238.729609
11422.114825,-4589.276840,2072.576638,-66190.651027
11422.118089,2072.576638,-4441.235652,-68335.718422
11422.121353,6069.688724,-5477.523971,-68488.937521
11422.124617,-4145.153275,-888.247130,-64198.802732
11422.127881,-4441.235652,-13027.624579,-74004.825107
11422.131145,2812.782580,-7994.224174,-79061.055394
11422.134409,-1924.535449,2664.741391,-78448.178995
11422.137673,-5773.606348,24278.754898,-83964.066581
11422.140940,-8438.347739,21910.095883,-94995.841752
11422.144207,-1480.411884,13767.830521,-90552.487864
11422.147474,-9474.636058,7402.059420,-96068.375449
11422.150741,-5477.523971,13471.748144,-74617.701505
11422.154008,1332.370696,10658.965565,-76762.768900
11422.157274,-8586.388927,8586.388927,-96528.032748
11422.160541,-3997.112087,6957.935855,-96068.375449
11422.163808,-4589.276840,5773.606348,-81206.122788
11422.167075,-3997.112087,15100.201217,-68488.937521
11422.170342,-11843.295072,17320.819043,-69408.252119
11422.173609,6365.771101,17024.736666,-70327.566716
11422.176876,-7846.182985,11695.253884,-75996.673402
11422.180142,-5477.523971,23982.672521,-69255.033019
11422.183409,6365.771101,1628.453072,-83810.847481
11422.186676,6069.688724,-740.205942,-81818.999186
11422.189943,3108.864956,148.041188,-77835.302597
11422.193210,3849.070898,7846.182985,-75230.577904
11422.196477,-1036.288319,-4441.235652,-65424.555529
11422.199744,-444.123565,1480.411884,-67876.061123
11422.203011,6957.935855,-1332.370696,-79980.369991
11422.206277,-3701.029710,4441.235652,-85955.914876
11422.209544,1036.288319,9326.594869,-89173.515967
11422.212811,-5181.441594,1332.370696,-109858.094413
11422.216078,-11991.336260,-6809.894666,-96528.032748
11422.219345,1776.494261,-7846.182985,-96681.251848
11422.222612,-6809.894666,-6365.771101,-74770.920605
11422.225879,-11399.171507,-7402.059420,-73238.729609
11422.229146,-7105.977043,6069.688724,-69867.909418
11422.232412,-5329.482782,-444.123565,-81359.341888
11422.235679,-7846.182985,11695.253884,-83197.971083
11422.238946,-2664.741391,15544.324782,-66803.527426
11422.242213,-4589.276840,17320.819043,-59295.791545
11422.245482,-1332.370696,11843.295072,-58836.134246
11422.248751,8882.471304,4737.318029,-62973.049936
11422.252020,-888.247130,6069.688724,-71859.757712
11422.255289,-6217.729913,17320.819043,-69867.909418
11422.258558,-3404.947333,13767.830521,-65118.117330
11422.261827,444.123565,18801.230927,-71859.757712
11422.265096,-2664.741391,20873.807564,-84883.381178
11422.268365,-10066.800811,12583.501014,-88560.639569
11422.271634,-10066.800811,10658.965565,-85496.257577
11422.274903,-148.041188,26351.331535,-75383.797003
11422.278172,-3701.029710,-888.247130,-87488.105872
11422.281440,-2220.617826,-1628.453072,-78754.617194
11422.284709,1776.494261,-8882.471304,-77222.426198
11422.287978,-444.123565,4885.359217,-61440.858940
11422.291247,-4293.194464,-7550.100608,-71400.100414
11422.294516,-296.082377,888.247130,-62360.173537
11422.297785,-1332.370696,-3552.988522,-73545.167808
11422.301054,-1332.370696,3404.947333,-74617.701505
11422.304323,3997.112087,9178.553681,-66956.746525
11422.307592,-1332.370696,5625.565159,-73545.167808
11422.310861,3849.070898,-148.041188,-72472.634111
11422.314130,-1628.453072,-4441.235652,-81972.218286
11422.317399,-4737.318029,-5477.523971,-84423.723880
11422.320668,-740.205942,-14952.160028,-78448.178995
11422.323937,2368.659014,4145.153275,-61440.858940
11422.327206,-6809.894666,3552.988522,-60981.201641
11422.330475,-148.041188,21169.889941,-58682.915147
11422.333744,-5329.482782,14359.995275,-72166.195912
11422.337013,-6069.688724,15396.283594,-83504.409282
11422.340282,2516.700203,8438.347739,-85649.476676
11422.343551,592.164754,1332.370696,-81972.218286
11422.346819,-2516.700203,6069.688724,-79980.369991
11422.350090,-4737.318029,25167.002028,-77222.426198
11422.353360,-2664.741391,4589.276840,-76149.892501
11422.356631,-1776.494261,6513.812290,-81052.903688
11422.359901,-2812.782580,14063.912898,-66343.870127
11422.363171,-1924.535449,18801.230927,-63279.488135
11422.366442,-7698.141797,15988.448347,-59142.572446
11422.369712,-148.041188,29016.072926,-68335.718422
11422.372982,-1184.329507,-2960.823768,-98673.100142
11422.376253,-1184.329507,740.205942,-95302.279951
11422.379523,1480.411884,-7550.100608,-85955.914876
11422.382794,3256.906145,5625.565159,-83351.190182
11422.386064,-4885.359217,-9770.718434,-71859.757712
11422.389334,-5181.441594,-1184.329507,-64811.679131
11422.392605,-8586.388927,296.082377,-81206.122788
11422.395875,-1332.370696,-3849.070898,-80133.589091
11422.399145,-4885.359217,7105.977043,-70787.224015
11422.402416,-5033.400406,6661.853478,-78907.836294
11422.405686,-1184.329507,-3256.906145,-85036.600278
11422.408957,4589.276840,-8882.471304,-90552.487864
11422.412227,-11103.089130,-7402.059420,-73545.167808
11422.415497,-148.041188,-3552.988522,-54086.342159
11422.418768,-148.041188,8142.265362,-51481.617466
11422.422038,-2664.741391,6661.853478,-66037.431928
11422.425308,-4885.359217,9030.512492,-93616.869856
11422.428579,2072.576638,13175.665768,-68029.280222
11422.431849,296.082377,25907.207970,-40143.404095
11422.435119,1036.288319,13767.830521,-54852.437657
11422.438390,3701.029710,-1184.329507,-81206.122788
11422.441660,-6217.729913,6513.812290,-75690.235202
11422.444931,-4885.359217,17468.860231,-67263.184724
11422.448201,2072.576638,13027.624579,-65884.212828
11422.451471,-3256.906145,9326.594869,-72319.415011
11422.454743,444.123565,16728.654289,-72012.976812
11422.458015,-3849.070898,15248.242405,-72166.195912
11422.461286,-6217.729913,15248.242405,-67109.965625
11422.464558,-2960.823768,24722.878463,-72166.195912
11422.467830,888.247130,-3256.906145,-89326.735067
11422.471101,1184.329507,5477.523971,-81665.780087
11422.474373,2516.700203,444.123565,-80899.684589
11422.477644,-3997.112087,3552.988522,-85802.695776
11422.480916,-2664.741391,-8882.471304,-80899.684589
11422.484188,5329.482782,-1628.453072,-86568.791274
11422.487459,-5477.523971,2516.700203,-85955.914876
11422.490731,888.247130,6957.935855,-79827.150892
11422.494003,-2072.576638,1332.370696,-74311.263306
11422.497274,-3552.988522,-4293.194464,-86262.353075
11422.500546,-5921.647536,-1628.453072,-87947.763170
11422.503818,-11103.089130,-2516.700203,-82278.656485
11422.507089,-5033.400406,-9622.677246,-78907.836294
11422.510361,-7254.018232,-13323.706956,-80440.027290
11422.513632,740.205942,-2368.659014,-75537.016103
11422.516904,-2368.659014,12879.583391,-88100.982270
11422.520176,-5329.482782,15692.365970,-88254.201370
11422.523447,-3849.070898,19245.354492,-70480.785816
11422.526719,-4885.359217,13027.624579,-69714.690318
11422.529991,2368.659014,2960.823768,-67263.184724
11422.533262,-6069.688724,3256.906145,-67263.184724
11422.536534,-3997.112087,13471.748144,-70174.347617
11422.539806,-740.205942,9622.677246,-63279.488135
11422.543077,-2960.823768,3997.112087,-59602.229744
11422.546349,-1184.329507,17764.942608,-60215.106143
11422.549620,592.164754,18801.230927,-73085.510509
11422.552892,-1184.329507,11251.130318,-85036.600278
11422.556164,-3701.029710,15396.283594,-74924.139704
11422.559436,-888.247130,11103.089130,-63279.488135
11422.562708,592.164754,4145.153275,-47038.263577
11422.565981,-14656.077652,-11547.212695,-59449.010645
11422.569253,-1776.494261,5477.523971,-68029.280222
11422.572525,-4885.359217,-9326.594869,-89479.954166
11422.575798,-9918.759623,-3997.112087,-77375.645298
11422.579070,-3256.906145,-2664.741391,-75690.235202
11422.582342,-3108.864956,8142.265362,-64045.583633
11422.585614,888.247130,2812.782580,-58376.476948
11422.588887,-3256.906145,13323.706956,-70327.566716
11422.592159,-6957.935855,-2072.576638,-85496.257577
11422.595431,-3404.947333,-15248.242405,-87334.886772
11422.598704,-3256.906145,-5921.647536,-68335.718422
11422.601976,-6365.771101,-6513.812290,-60061.887043
11422.605248,0.000000,3404.947333,-60981.201641
11422.608521,444.123565,-3108.864956,-78448.178995
11422.611793,-7105.977043,16284.530724,-65730.993728
11422.615065,1184.329507,17024.736666,-60827.982541
11422.618338,-2368.659014,19393.395680,-51328.398366
11422.621610,-2368.659014,6069.688724,-67263.184724
11422.624882,4589.276840,5921.647536,-72166.195912
11422.628154,444.123565,8290.306550,-78754.617194
11422.631427,0.000000,12139.377449,-76609.549800
11422.634699,-1184.329507,2516.700203,-66956.746525
11422.637971,-4737.318029,9622.677246,-64045.583633
11422.641244,-3404.947333,23242.466579,-57610.381450
11422.644516,-4293.194464,15544.324782,-51481.617466
11422.647788,-2960.823768,11843.295072,-63279.488135
11422.651061,1924.535449,19245.354492,-73851.606007
11422.654333,7105.977043,4885.359217,-74158.044206
11422.657605,-1184.329507,148.041188,-55771.752254
11422.660878,-4885.359217,-3108.864956,-61440.858940
11422.664150,7846.182985,-2960.823768,-79061.055394
11422.667423,-4293.194464,-8586.388927,-87641.324971
11422.670695,-444.123565,2220.617826,-76609.549800
11422.673967,1480.411884,12139.377449,-62053.735338
11422.677240,-4737.318029,-1332.370696,-69101.813920
11422.680512,-888.247130,9326.594869,-74617.701505
11422.683785,-6217.729913,-3997.112087,-73698.386908
11422.687057,-2960.823768,-9178.553681,-74004.825107
11422.690330,-740.205942,-3701.029710,-71706.538613
11422.693602,-5773.606348,-10658.965565,-68642.156621
11422.696875,-2072.576638,-2812.782580,-86262.353075
11422.700147,-3108.864956,-3552.988522,-89786.392366
11422.703420,2368.659014,25759.166782,-57303.943250
11422.706692,-1628.453072,14211.954086,-61900.516238
11422.709965,-3256.906145,20725.766376,-83197.971083
11422.713237,-6513.812290,5477.523971,-104495.425927
11422.716510,-3256.906145,-2368.659014,-94842.622652
11422.719782,1036.288319,9030.512492,-80133.589091
11422.723055,-4293.194464,16728.654289,-76762.768900
11422.726327,-2368.659014,10214.842000,-94995.841752
11422.729600,-4293.194464,11103.089130,-86568.791274
11422.732872,-12435.459826,28868.031738,-68642.156621
11422.736145,-5773.606348,10510.924376,-67109.965625
11422.739417,740.205942,14804.118840,-72319.415011
11422.742690,-7105.977043,20429.683999,-88100.982270
11422.745962,-740.205942,8734.430116,-87028.448573
11422.749235,1480.411884,6957.935855,-72166.195912
11422.752507,-11103.089130,-1776.494261,-73391.948708
11422.755780,0.000000,-3108.864956,-83810.847481
11422.759052,10362.883188,-9474.636058,-78754.617194
11422.762325,-7254.018232,1924.535449,-67416.403824
11422.765597,2072.576638,15100.201217,-59908.667944
11422.768859,-4441.235652,5329.482782,-75537.016103
11422.772130,-10362.883188,4293.194464,-77682.083497
11422.775402,5033.400406,-1924.535449,-94229.746254
11422.778673,-5625.565159,-6809.894666,-88254.201370
11422.781944,444.123565,-7698.141797,-70480.785816
11422.785216,-10658.965565,-9030.512492,-56997.505051
11422.788487,-7550.100608,1036.288319,-67876.061123
11422.791758,-4293.194464,-5773.606348,-70940.443115
11422.795030,-2960.823768,18061.024985,-74158.044206
11422.798301,1628.453072,13915.871710,-71553.319513
11422.801572,-592.164754,24130.713709,-66343.870127
11422.804844,10066.800811,12435.459826,-75537.016103
11422.808115,-9178.553681,1628.453072,-85955.914876
11422.811386,-3552.988522,5773.606348,-80593.246390
11422.814658,6661.853478,17912.983796,-74158.044206
11422.817929,-8586.388927,8882.471304,-77682.083497
11422.821200,5477.523971,13767.830521,-81512.560987
11422.824472,-148.041188,18209.066173,-85649.476676
11422.827743,-4885.359217,6365.771101,-91012.145162
11422.831014,-1184.329507,9770.718434,-79061.055394
11422.834286,-2812.782580,20577.725188,-63739.145434
11422.837557,-4293.194464,11991.336260,-64505.240932
11422.840828,-8438.347739,-8142.265362,-77682.083497
11422.844100,-4737.318029,-7105.977043,-83197.971083
11422.847371,1184.329507,-5773.606348,-77835.302597
11422.850642,-3256.906145,-3552.988522,-75843.454302
11422.853914,-444.123565,6365.771101,-65118.117330
11422.857185,-7402.059420,9622.677246,-66343.870127
11422.860456,888.247130,148.041188,-71400.100414
11422.863728,-7550.100608,5329.482782,-62973.049936
11422.866999,-3404.947333,2220.617826,-57763.600549
11422.870270,-6217.729913,-4145.153275,-61134.420740
11422.873498,-9326.594869,-9326.594869,-70634.004916
11422.876726,-3997.112087,-15988.448347,-79520.712692
11422.879954,444.123565,-8882.471304,-74924.139704
11422.883182,5625.565159,-148.041188,-65424.555529
11422.886410,444.123565,21169.889941,-54852.437657
11422.889638,3552.988522,21614.013506,-53320.246661
11422.892866,888.247130,18061.024985,-49949.426470
11422.896094,-3552.988522,1776.494261,-62360.173537
11422.899321,3701.029710,1628.453072,-73851.606007
11422.902549,-4293.194464,5921.647536,-83351.190182
11422.905777,-3108.864956,18209.066173,-75230.577904
11422.909005,5625.565159,9622.677246,-78294.959896
11422.912233,-4441.235652,11991.336260,-68335.718422
11422.915461,1184.329507,18505.148550,-63432.707234
11422.918689,-4145.153275,9326.594869,-61594.078039
11422.921917,-444.123565,16432.571912,-75383.797003
11422.925145,-296.082377,9178.553681,-81818.999186
11422.928373,-1924.535449,6661.853478,-85955.914876
11422.931600,-740.205942,-13471.748144,-88254.201370
11422.934828,-1628.453072,296.082377,-70327.566716
11422.938056,-148.041188,-12435.459826,-80899.684589
11422.941284,-7254.018232,-5773.606348,-77988.521696
11422.944512,-2220.617826,1332.370696,-75690.235202
11422.947740,-2368.659014,-1332.370696,-74311.263306
11422.950974,-8586.388927,3849.070898,-55158.875856
11422.954208,-4441.235652,-1036.288319,-63279.488135
11422.957442,-4293.194464,-9770.718434,-78448.178995
11422.960676,-8142.265362,-10955.047942,-73851.606007
11422.963911,-296.082377,-12139.377449,-68182.499322
11422.967145,-3701.029710,592.164754,-46118.948980
11422.970379,-5329.482782,-2812.782580,-65730.993728
11422.973613,740.205942,29608.237680,-75077.358804
11422.976847,-1776.494261,12583.501014,-90858.926063
11422.980081,-1332.370696,22502.260637,-87488.105872
11422.983315,0.000000,13767.830521,-80593.246390
11422.986550,-1628.453072,6809.894666,-72932.291410
11422.989784,-740.205942,1480.411884,-88100.982270
11422.993018,-3256.906145,10658.965565,-96987.690047
11422.996252,-4885.359217,13619.789333,-89633.173266
11422.999486,-888.247130,3849.070898,-88713.858668
11423.002720,-6365.771101,21169.889941,-89173.515967
11423.005954,-11251.130318,6217.729913,-90399.268764
11423.009189,3108.864956,9622.677246,-74770.920605
11423.012423,-5625.565159,19097.313304,-62206.954438
11423.015657,-2960.823768,11991.336260,-67109.965625
11423.018891,2960.823768,-2960.823768,-77069.207099
11423.022125,-7105.977043,-8586.388927,-75843.454302
11423.025359,-6513.812290,-8438.347739,-70787.224015
11423.028593,444.123565,-4885.359217,-52860.589362
11423.031828,4589.276840,5033.400406,-57610.381450
11423.035062,-5181.441594,9326.594869,-67722.842023
11423.038296,1628.453072,1184.329507,-77222.426198
11423.041530,-5329.482782,1184.329507,-79367.493593
11423.044764,-2516.700203,-2072.576638,-79214.274493
11423.047998,-1036.288319,-8734.430116,-66037.431928
11423.051232,-6217.729913,-2960.823768,-55924.971354
11423.054472,-2960.823768,-7254.018232,-74311.263306
11423.057712,-8438.347739,-9622.677246,-96987.690047
11423.060952,-10807.006753,17320.819043,-93770.088955
11423.064192,-3256.906145,12731.542202,-97140.909146
11423.067432,-888.247130,24278.754898,-75077.358804
11423.070671,1480.411884,19689.478057,-74770.920605
11423.073911,-2516.700203,-1036.288319,-74617.701505
11423.077151,-888.247130,-148.041188,-63892.364533
11423.080391,-3256.906145,8734.430116,-59449.010645
11423.083631,-6069.688724,15544.324782,-55465.314055
11423.086870,592.164754,2072.576638,-77682.083497
11423.090110,-5773.606348,17172.777854,-83964.066581
11423.093350,2220.617826,10658.965565,-85802.695776
11423.096590,4293.194464,11251.130318,-63892.364533
11423.099830,-1184.329507,30348.443622,-58223.257848
11423.103070,592.164754,15692.365970,-47497.920876
11423.106309,-6069.688724,8586.388927,-58529.696047
11423.109549,-3997.112087,-5477.523971,-87947.763170
11423.112789,1184.329507,-9622.677246,-93157.212557
11423.116029,2516.700203,-15988.448347,-85189.819378
11423.119269,-5625.565159,12583.501014,-76303.111601
11423.122509,-1036.288319,7402.059420,-81665.780087
11423.125748,1036.288319,6513.812290,-79214.274493
11423.128988,-3997.112087,5773.606348,-70634.004916
11423.132228,0.000000,1332.370696,-81665.780087
11423.135468,-6217.729913,-7402.059420,-89326.735067
11423.138708,-3256.906145,-9326.594869,-87488.105872
11423.141947,-2516.700203,-12731.542202,-91778.240660
11423.145187,-5181.441594,-5329.482782,-89939.611465
11423.148427,-6217.729913,10807.006753,-79980.369991
11423.151667,-6069.688724,14804.118840,-81052.903688
11423.154907,-9030.512492,21910.095883,-68948.594820
11423.158152,3404.947333,18801.230927,-87028.448573
11423.161397,444.123565,-1776.494261,-86109.133975
11423.164641,-15396.283594,-4145.153275,-70787.224015
11423.167886,-11991.336260,7698.141797,-60521.544342
11423.171131,-296.082377,13619.789333,-64505.240932
11423.174376,-8438.347739,5181.441594,-71859.757712
11423.177621,-8290.306550,9770.718434,-83044.751983
11423.180866,-4737.318029,13323.706956,-63739.145434
11423.184111,-7402.059420,17616.901420,-37691.898502
11423.187356,4293.194464,21021.848753,-44433.538884
11423.190601,3552.988522,9178.553681,-70480.785816
11423.193845,1480.411884,7698.141797,-84576.942979
11423.197090,-1776.494261,-8882.471304,-66497.089226
11423.200335,740.205942,-8142.265362,-64198.802732
11423.203580,2812.782580,-6661.853478,-69561.471218
11423.206825,1480.411884,1924.535449,-86415.572174
11423.210070,-5329.482782,6957.935855,-91931.459760
11423.213315,-1480.411884,1184.329507,-74311.263306
11423.216560,-2516.700203,1628.453072,-71246.881314
11423.219805,-9030.512492,-592.164754,-68795.375720
11423.223049,-3701.029710,-10362.883188,-74004.825107
11423.226294,-1480.411884,-17616.901420,-84270.504780
11423.229539,-8290.306550,-9770.718434,-77222.426198
11423.232784,-3849.070898,-3997.112087,-77069.207099
11423.236029,-7994.224174,25463.084405,-83197.971083
11423.239274,-1776.494261,15840.407159,-99132.757441
11423.242519,-3701.029710,23390.507767,-83197.971083
11423.245764,296.082377,20873.807564,-69255.033019
11423.249009,-3108.864956,2664.741391,-55005.656756
11423.252253,-4293.194464,-3552.988522,-61440.858940
11423.255498,-8142.265362,7846.182985,-63739.145434
11423.258743,-5181.441594,25907.207970,-63432.707234
11423.261992,-888.247130,10066.800811,-78141.740796
11423.265241,-3404.947333,19985.560434,-83657.628382
11423.268490,-11843.295072,9770.718434,-87488.105872
11423.271739,1184.329507,10362.883188,-72319.415011
11423.274988,-3404.947333,11103.089130,-81665.780087
11423.278237,-4293.194464,15248.242405,-58836.134246
11423.281486,-2516.700203,-3701.029710,-55312.094956
11423.284735,-7846.182985,-4589.276840,-61900.516238
11423.287984,-2072.576638,-14656.077652,-73545.167808
11423.291233,-5181.441594,-10214.842000,-75230.577904
11423.294482,-6217.729913,11547.212695,-69561.471218
11423.297731,592.164754,11991.336260,-74617.701505
11423.300980,-444.123565,-7254.018232,-77682.083497
11423.304229,-6809.894666,4737.318029,-56997.505051
11423.307478,-7254.018232,-2516.700203,-43973.881585
11423.310727,-3849.070898,-9770.718434,-53013.808462
11423.313976,-4589.276840,-2664.741391,-56844.285952
11423.317225,1036.288319,2220.617826,-73545.167808
11423.320474,-6661.853478,-8586.388927,-88407.420469
11423.323723,0.000000,26943.496289,-67263.184724
11423.326972,1332.370696,15100.201217,-77528.864398
11423.330221,-1184.329507,25463.084405,-88560.639569
11423.333470,4293.194464,16284.530724,-91471.802461
11423.336719,-1776.494261,-1332.370696,-93310.431656
11423.339967,-1924.535449,-1332.370696,-95915.156350
11423.343216,-6957.935855,12879.583391,-75690.235202
11423.346465,148.041188,21614.013506,-73085.510509
11423.349714,-740.205942,10658.965565,-96681.251848
11423.352963,-1184.329507,16136.489536,-93003.993457
11423.356212,-2368.659014,6957.935855,-104955.083226
11423.359461,592.164754,21021.848753,-85189.819378
11423.362710,-9770.718434,8586.388927,-80286.808190
11423.365962,6809.894666,12435.459826,-72472.634111
11423.369215,-7105.977043,-12879.583391,-82431.875585
11423.372467,-3701.029710,-6217.729913,-92237.897959
11423.375719,0.000000,-21614.013506,-83044.751983
11423.378971,-3404.947333,888.247130,-63432.707234
11423.382223,2220.617826,12879.583391,-66190.651027
11423.385476,-4737.318029,-3997.112087,-74464.482406
11423.388728,-740.205942,1184.329507,-74004.825107
11423.391980,-3552.988522,1184.329507,-80746.465489
11423.395232,-7846.182985,-4589.276840,-64658.460031
11423.398484,-592.164754,-1036.288319,-51021.960167
11423.401737,592.164754,-6809.894666,-65730.993728
11423.404989,-1480.411884,-7994.224174,-90705.706963
11423.408241,4293.194464,4145.153275,-85343.038477
11423.411493,296.082377,11695.253884,-87641.324971
11423.414745,4441.235652,27979.784608,-58529.696047
11423.417998,-7698.141797,28275.866984,-51941.274764
11423.421250,-4441.235652,-444.123565,-72166.195912
11423.424502,-3404.947333,-5625.565159,-71093.662214
11423.427754,-4145.153275,4885.359217,-63892.364533
11423.431006,296.082377,21021.848753,-67569.622924
11423.434259,-9326.594869,13175.665768,-82585.094684
11423.437511,3256.906145,23390.507767,-79061.055394
11423.440763,-3552.988522,7550.100608,-78754.617194
11423.444015,-3108.864956,15544.324782,-63585.926334
11423.447267,1184.329507,17616.901420,-59602.229744
11423.450519,-148.041188,14508.036463,-63279.488135
11423.453772,-11695.253884,-3256.906145,-66956.746525
11423.457024,-1776.494261,148.041188,-64964.898230
11423.460276,-8882.471304,-17468.860231,-72166.195912
11423.463528,-6661.853478,-8882.471304,-79520.712692
11423.466780,-3701.029710,7846.182985,-80286.808190
11423.469993,-740.205942,-1924.535449,-91471.802461
11423.473206,-5477.523971,-1332.370696,-79061.055394
11423.476419,-6513.812290,9770.718434,-61900.516238
11423.479631,1036.288319,-7254.018232,-61900.516238
11423.482844,-6513.812290,-3997.112087,-60981.201641
11423.486057,-592.164754,-8290.306550,-68795.375720
11423.489270,-740.205942,-5921.647536,-67722.842023
11423.492482,-4293.194464,-4441.235652,-71706.538613
11423.495695,2516.700203,18357.107362,-59295.791545
11423.498908,2664.741391,20725.766376,-59295.791545
11423.502120,3701.029710,28571.949361,-60981.201641
11423.505333,-2812.782580,10362.883188,-73851.606007
11423.508546,3404.947333,8290.306550,-56384.628653
11423.511759,-1036.288319,5033.400406,-68642.156621
11423.514971,3404.947333,2368.659014,-89479.954166
11423.518184,-9178.553681,7994.224174,-79827.150892
11423.521397,-444.123565,24722.878463,-54852.437657
11423.524609,-6809.894666,17320.819043,-66650.308326
11423.527822,-8586.388927,14656.077652,-70021.128517
11423.531035,-740.205942,18949.272115,-89020.296868
11423.534248,6513.812290,3997.112087,-99132.757441
11423.537460,-19245.354492,592.164754,-76303.111601
11423.540673,-3404.947333,4885.359217,-59908.667944
11423.543886,-3108.864956,-16432.571912,-71400.100414
11423.547099,-7846.182985,-12435.459826,-72166.195912
11423.550311,-10955.047942,13175.665768,-72012.976812
11423.553524,-148.041188,2812.782580,-78294.959896
11423.556737,-2960.823768,6957.935855,-68182.499322
11423.559949,0.000000,14063.912898,-75690.235202
11423.563162,-2072.576638,-2960.823768,-85649.476676
11423.566375,-5033.400406,-8734.430116,-83504.409282
11423.569588,1924.535449,-13027.624579,-79673.931792
11423.572768,-3701.029710,-4441.235652,-64811.679131
11423.575949,-8438.347739,-7402.059420,-59908.667944
11423.579130,-3256.906145,18357.107362,-50409.083768
11423.582310,-4737.318029,21169.889941,-55465.314055
11423.585491,-2368.659014,31532.773129,-67569.622924
11423.588671,1628.453072,6365.771101,-89173.515967
11423.591852,-1776.494261,1184.329507,-79980.369991
11423.595033,1776.494261,10510.924376,-73391.948708
11423.598213,2516.700203,10658.965565,-65577.774629
11423.601394,-5477.523971,14063.912898,-64045.583633
11423.604575,-10510.924376,15988.448347,-58223.257848
11423.607755,-1184.329507,11843.295072,-66497.089226
11423.610936,-10066.800811,15396.283594,-69867.909418
11423.614117,-592.164754,25759.166782,-70940.443115
11423.617297,12879.583391,3552.988522,-94842.622652
11423.620478,-14508.036463,3404.947333,-85343.038477
11423.623658,-8290.306550,-4145.153275,-72319.415011
11423.626839,-5625.565159,-17172.777854,-72472.634111
11423.630020,-4441.235652,-13767.830521,-66497.089226
11423.633200,-6513.812290,10955.047942,-72779.072310
11423.636381,0.000000,444.123565,-80899.684589
11423.639562,-2072.576638,-1628.453072,-67263.184724
11423.642742,-4737.318029,9326.594869,-68795.375720
11423.645923,-4145.153275,-7698.141797,-74004.825107
11423.649104,-5477.523971,-7846.182985,-68029.280222
11423.652284,-444.123565,-12731.542202,-68795.375720
11423.655465,-5921.647536,-1184.329507,-63892.364533
11423.658645,-1332.370696,-4589.276840,-74770.920605
11423.661826,-888.247130,10955.047942,-74464.482406
11423.665007,-2516.700203,17172.777854,-65884.212828
11423.668187,-3108.864956,34937.720462,-43054.566988
11423.671368,4145.153275,12435.459826,-55771.752254
11423.674523,0.000000,2368.659014,-81359.341888
11423.677678,-296.082377,296.082377,-100205.291138
11423.680832,7254.018232,16728.654289,-81818.999186
11423.683987,2664.741391,13175.665768,-69714.690318
11423.687142,14359.995275,20281.642811,-64352.021832
11423.690297,-592.164754,4885.359217,-92544.336158
11423.693451,-7402.059420,7254.018232,-103116.454031
11423.696606,-10362.883188,19541.436869,-83810.847481
11423.699761,5477.523971,7846.182985,-82891.532884
11423.702916,-21910.095883,-7402.059420,-84730.162079
11423.706070,-13323.706956,148.041188,-81665.780087
11423.709225,-14656.077652,-23538.548956,-92084.678860
11423.712380,-3108.864956,-8882.471304,-83197.971083
11423.715535,-2072.576638,12139.377449,-76609.549800
11423.718690,-10362.883188,-7254.018232,-86262.353075
11423.721844,-3256.906145,10658.965565,-52247.712964
11423.724999,2220.617826,15840.407159,-47497.920876
11423.728154,-3404.947333,-7698.141797,-89479.954166
11423.731309,-1480.411884,-12139.377449,-97907.004644
11423.734463,-3997.112087,-11843.295072,-71859.757712
11423.737618,-7550.100608,-4441.235652,-71093.662214
11423.740773,-3701.029710,20429.683999,-66803.527426
11423.743928,-1184.329507,11399.171507,-91165.364262
11423.747082,-3256.906145,19393.395680,-76456.330700
11423.750237,-3256.906145,28571.949361,-57303.943250
11423.753392,-444.123565,1184.329507,-64811.679131
11423.756547,-4885.359217,-148.041188,-66190.651027
11423.759702,-6069.688724,7550.100608,-73238.729609
11423.762856,2664.741391,14656.077652,-76762.768900
11423.766011,-7846.182985,11251.130318,-87488.105872
11423.769166,7254.018232,17616.901420,-81206.122788
11423.772321,-1480.411884,6365.771101,-76609.549800
11423.775467,-592.164754,24278.754898,-69714.690318
11423.778602,-592.164754,14359.995275,-59755.448844
11423.781736,2368.659014,11991.336260,-65730.993728
11423.784871,0.000000,-7698.141797,-89020.296868
11423.788005,444.123565,-9178.553681,-92544.336158
11423.791140,-592.164754,-24278.754898,-90552.487864
11423.794274,-4441.235652,2960.823768,-76609.549800
11423.797409,4293.194464,18505.148550,-70021.128517
11423.800543,-1480.411884,-4441.235652,-79520.712692
11423.803678,-148.041188,9622.677246,-81359.341888
11423.806812,-3997.112087,4145.153275,-80746.465489
11423.809947,-3701.029710,-10955.047942,-77375.645298
11423.813081,-3552.988522,-10807.006753,-80440.027290
11423.816216,-5181.441594,-2072.576638,-79520.712692
11423.819350,-6661.853478,-12879.583391,-79214.274493
11423.822485,-148.041188,32717.102636,-53626.684860
11423.825619,-888.247130,19245.354492,-69714.690318
11423.828754,-1776.494261,30940.608376,-63739.145434
11423.831888,-2368.659014,12731.542202,-94536.184453
11423.835023,-3552.988522,-6217.729913,-95608.718150
11423.838157,0.000000,5773.606348,-81972.218286
11423.841291,-2072.576638,15544.324782,-70174.347617
11423.844426,-4737.318029,12583.501014,-83964.066581
11423.847560,-16136.489536,13027.624579,-93770.088955
11423.850677,-1924.535449,11103.089130,-93770.088955
11423.853794,-1184.329507,0.000000,-96681.251848
11423.856911,-11399.171507,18357.107362,-68335.718422
11423.860027,-888.247130,18949.272115,-55005.656756
11423.863144,-6217.729913,-1480.411884,-77988.521696
11423.866261,-5181.441594,-10066.800811,-82891.532884
11423.869378,-5181.441594,-22650.301825,-83657.628382
11423.872494,444.123565,-9326.594869,-65424.555529
11423.875611,-6661.853478,18801.230927,-59755.448844
11423.878728,-888.247130,6365.771101,-72319.415011
11423.881844,-1924.535449,-8290.306550,-82431.875585
11423.884961,-6809.894666,9474.636058,-84730.162079
11423.888078,-740.205942,-1628.453072,-77988.521696
11423.891195,-2812.782580,-13323.706956,-75996.673402
11423.894311,-6957.935855,-5625.565159,-81052.903688
11423.897428,-12731.542202,-10362.883188,-86568.791274
11423.900545,-6069.688724,11251.130318,-79367.493593
11423.903662,-7550.100608,17616.901420,-93463.650756
11423.906778,148.041188,31976.896694,-80746.465489
11423.909895,-7105.977043,18653.189738,-81206.122788
11423.913012,-3997.112087,1628.453072,-76456.330700
11423.916128,-2812.782580,2960.823768,-55618.533155
11423.919245,-2664.741391,11399.171507,-51788.055665
11423.922362,1776.494261,24870.919651,-43514.224286
11423.925479,-3404.947333,9918.759623,-71246.881314
11423.928595,0.000000,17320.819043,-93157.212557
11423.931712,-3997.112087,12583.501014,-83504.409282
11423.934829,2960.823768,23686.590144,-61747.297139
11423.937946,-5181.441594,18949.272115,-68642.156621
11423.941062,-10658.965565,6365.771101,-58223.257848
11423.944179,-1628.453072,-6957.935855,-66803.527426
11423.947296,-8882.471304,-18505.148550,-83504.409282
11423.950441,2220.617826,-16136.489536,-83044.751983
11423.953586,1184.329507,3256.906145,-84117.285680
11423.956732,-1332.370696,7105.977043,-74464.482406
11423.959877,-1628.453072,6217.729913,-71553.319513
11423.963022,-3108.864956,9918.759623,-76762.768900
11423.966168,-3108.864956,-444.123565,-78141.740796
11423.969313,740.205942,-14359.995275,-73238.729609
11423.972458,-6069.688724,-13915.871710,-85496.257577
11423.975604,-10510.924376,-444.123565,-92237.897959
11423.978749,-3552.988522,6809.894666,-102810.015832
11423.981894,-7254.018232,10807.006753,-97753.785545
11423.985040,-5329.482782,33161.226202,-59602.229744
11423.988185,-296.082377,24278.754898,-54852.437657
11423.991330,-8586.388927,-5181.441594,-68642.156621
11423.994476,2072.576638,9474.636058,-55924.971354
11423.997621,-3552.988522,11547.212695,-61594.078039
11424.000766,-4293.194464,8882.471304,-65118.117330
11424.003912,-2960.823768,8734.430116,-76456.330700
11424.007057,4293.194464,17616.901420,-75996.673402
11424.010202,1480.411884,16580.613101,-72012.976812
11424.013348,-4293.194464,24870.919651,-69255.033019
11424.016493,3552.988522,10658.965565,-78601.398095
11424.019638,-7550.100608,5329.482782,-82585.094684
11424.022784,-296.082377,1924.535449,-78601.398095
11424.025929,-6957.935855,-8438.347739,-83657.628382
11424.029074,-1628.453072,-19837.519246,-87334.886772
11424.032220,-148.041188,3997.112087,-81818.999186
11424.035365,-5477.523971,2072.576638,-83351.190182
11424.038510,-4441.235652,-4293.194464,-70480.785816
11424.041656,-1036.288319,2664.741391,-60521.544342
11424.044801,-3256.906145,-11547.212695,-69101.813920
11424.047946,-7698.141797,-8142.265362,-60827.982541
11424.051076,-3997.112087,-8290.306550,-68029.280222
11424.054206,-4293.194464,-2664.741391,-79214.274493
11424.057336,-4885.359217,3701.029710,-101277.824836
11424.060466,1332.370696,9918.759623,-96987.690047
11424.063596,-2664.741391,27387.619854,-49642.988270
11424.066726,-4589.276840,35381.844028,-33861.421012
11424.069856,-5181.441594,-740.205942,-51328.398366
11424.072985,-7994.224174,-888.247130,-65424.555529
11424.076115,-2664.741391,2960.823768,-67416.403824
11424.079245,888.247130,3701.029710,-58682.915147
11424.082375,-5329.482782,8734.430116,-61747.297139
11424.085505,-2664.741391,25463.084405,-63892.364533
11424.088635,-9326.594869,9178.553681,-69255.033019
11424.091765,1184.329507,18061.024985,-63892.364533
11424.094895,-2072.576638,12583.501014,-57303.943250
11424.098024,2072.576638,12583.501014,-58989.353346
11424.101154,-3552.988522,1036.288319,-73698.386908
11424.104284,4885.359217,-11547.212695,-88713.858668
11424.107414,9622.677246,-23982.672521,-82738.313784
11424.110544,-6957.935855,9178.553681,-75843.454302
11424.113674,8290.306550,17320.819043,-68948.594820
11424.116804,-1184.329507,-1036.288319,-75383.797003
11424.119934,-296.082377,9178.553681,-81052.903688
11424.123064,5477.523971,592.164754,-89020.296868
11424.126193,-1776.494261,-16728.654289,-75843.454302
11424.129323,-6513.812290,-7105.977043,-89786.392366
11424.132453,-888.247130,-7402.059420,-100511.729338
11424.135583,-3108.864956,11399.171507,-99745.633840
11424.138713,-6809.894666,18653.189738,-90858.926063
11424.141843,3256.906145,27091.537477,-74311.263306
11424.144973,-4441.235652,22058.137072,-68029.280222
11424.148103,-5329.482782,1924.535449,-76915.987999
11424.151261,-8586.388927,3997.112087,-70480.785816
11424.154420,-1628.453072,7550.100608,-79061.055394
11424.157578,3849.070898,10955.047942,-70480.785816
11424.160737,-3256.906145,9030.512492,-77069.207099
11424.163895,-2368.659014,16876.695478,-74311.263306
11424.167054,2516.700203,15544.324782,-74311.263306
11424.170212,2072.576638,17320.819043,-70634.004916
11424.173371,-1184.329507,15840.407159,-69714.690318
11424.176529,-2072.576638,5625.565159,-72319.415011
11424.179688,-5181.441594,-11399.171507,-80440.027290
11424.182846,-10362.883188,-19837.519246,-80899.684589
11424.186004,-1332.370696,-3256.906145,-76303.111601
